Seconds,Stream,E4_Seconds,AccX,AccY,AccZ
1904-01-01 00:08:45.780000046,E4_Acc,2024-06-27 11:32:56.953510046,-18.0,-61.0,11.0
1904-01-01 00:08:45.811250046,E4_Acc,2024-06-27 11:32:56.984760046,-17.0,-61.0,11.0
1904-01-01 00:08:45.842500046,E4_Acc,2024-06-27 11:32:57.016010046,-18.0,-62.0,11.0
1904-01-01 00:08:45.873750046,E4_Acc,2024-06-27 11:32:57.047260046,-18.0,-61.0,12.0
1904-01-01 00:08:45.905000046,E4_Acc,2024-06-27 11:32:57.078510046,-18.0,-62.0,12.0
1904-01-01 00:08:45.936260060,E4_Acc,2024-06-27 11:32:57.109770060,-18.0,-62.0,11.0
1904-01-01 00:08:45.967510060,E4_Acc,2024-06-27 11:32:57.141020060,-19.0,-62.0,11.0
1904-01-01 00:08:45.998760060,E4_Acc,2024-06-27 11:32:57.172270060,-18.0,-62.0,11.0
1904-01-01 00:08:46.030010060,E4_Acc,2024-06-27 11:32:57.203520060,-17.0,-61.0,11.0
1904-01-01 00:08:46.061260060,E4_Acc,2024-06-27 11:32:57.234770060,-17.0,-60.0,10.0
1904-01-01 00:08:46.092510060,E4_Acc,2024-06-27 11:32:57.266020060,-17.0,-61.0,10.0
1904-01-01 00:08:46.123760060,E4_Acc,2024-06-27 11:32:57.297270060,-18.0,-61.0,10.0
1904-01-01 00:08:46.155020073,E4_Acc,2024-06-27 11:32:57.328530073,-18.0,-61.0,10.0
1904-01-01 00:08:46.186270073,E4_Acc,2024-06-27 11:32:57.359780073,-18.0,-61.0,9.0
1904-01-01 00:08:46.217520073,E4_Acc,2024-06-27 11:32:57.391030073,-18.0,-62.0,10.0
1904-01-01 00:08:46.248770073,E4_Acc,2024-06-27 11:32:57.422280073,-18.0,-62.0,10.0
1904-01-01 00:08:46.280020073,E4_Acc,2024-06-27 11:32:57.453530073,-18.0,-62.0,10.0
1904-01-01 00:08:46.311270073,E4_Acc,2024-06-27 11:32:57.484780073,-18.0,-61.0,10.0
1904-01-01 00:08:46.342520073,E4_Acc,2024-06-27 11:32:57.516030073,-17.0,-61.0,10.0
1904-01-01 00:08:46.373780087,E4_Acc,2024-06-27 11:32:57.547290087,-17.0,-62.0,10.0
1904-01-01 00:08:46.405030087,E4_Acc,2024-06-27 11:32:57.578540087,-17.0,-62.0,11.0
1904-01-01 00:08:46.436280087,E4_Acc,2024-06-27 11:32:57.609790087,-16.0,-62.0,11.0
1904-01-01 00:08:46.467530087,E4_Acc,2024-06-27 11:32:57.641040087,-15.0,-61.0,13.0
1904-01-01 00:08:46.498780087,E4_Acc,2024-06-27 11:32:57.672290087,-14.0,-62.0,14.0
1904-01-01 00:08:46.530030087,E4_Acc,2024-06-27 11:32:57.703540087,-15.0,-62.0,12.0
1904-01-01 00:08:46.561280087,E4_Acc,2024-06-27 11:32:57.734790087,-17.0,-63.0,10.0
1904-01-01 00:08:46.592540100,E4_Acc,2024-06-27 11:32:57.766050100,-21.0,-63.0,7.0
1904-01-01 00:08:46.623790100,E4_Acc,2024-06-27 11:32:57.797300100,-22.0,-62.0,6.0
1904-01-01 00:08:46.655040100,E4_Acc,2024-06-27 11:32:57.828550100,-21.0,-61.0,6.0
1904-01-01 00:08:46.686290100,E4_Acc,2024-06-27 11:32:57.859800100,-21.0,-60.0,6.0
1904-01-01 00:08:46.717540100,E4_Acc,2024-06-27 11:32:57.891050100,-20.0,-61.0,6.0
1904-01-01 00:08:46.748790100,E4_Acc,2024-06-27 11:32:57.922300100,-18.0,-62.0,7.0
1904-01-01 00:08:46.780040100,E4_Acc,2024-06-27 11:32:57.953550100,-19.0,-62.0,6.0
1904-01-01 00:08:46.811300114,E4_Acc,2024-06-27 11:32:57.984810114,-19.0,-61.0,6.0
1904-01-01 00:08:46.842550114,E4_Acc,2024-06-27 11:32:58.016060114,-20.0,-61.0,5.0
1904-01-01 00:08:46.873800114,E4_Acc,2024-06-27 11:32:58.047310114,-20.0,-61.0,5.0
1904-01-01 00:08:46.905050114,E4_Acc,2024-06-27 11:32:58.078560114,-20.0,-62.0,5.0
1904-01-01 00:08:46.936300114,E4_Acc,2024-06-27 11:32:58.109810114,-17.0,-60.0,8.0
1904-01-01 00:08:46.967550114,E4_Acc,2024-06-27 11:32:58.141060114,-16.0,-59.0,9.0
1904-01-01 00:08:46.998800114,E4_Acc,2024-06-27 11:32:58.172310114,-15.0,-63.0,10.0
1904-01-01 00:08:47.030059889,E4_Acc,2024-06-27 11:32:58.203569889,-16.0,-66.0,11.0
1904-01-01 00:08:47.061309889,E4_Acc,2024-06-27 11:32:58.234819889,-17.0,-63.0,11.0
1904-01-01 00:08:47.092559889,E4_Acc,2024-06-27 11:32:58.266069889,-18.0,-60.0,11.0
1904-01-01 00:08:47.123809889,E4_Acc,2024-06-27 11:32:58.297319889,-18.0,-61.0,11.0
1904-01-01 00:08:47.155059889,E4_Acc,2024-06-27 11:32:58.328569889,-18.0,-62.0,12.0
1904-01-01 00:08:47.186309889,E4_Acc,2024-06-27 11:32:58.359819889,-18.0,-62.0,12.0
1904-01-01 00:08:47.217559889,E4_Acc,2024-06-27 11:32:58.391069889,-18.0,-63.0,13.0
1904-01-01 00:08:47.248819903,E4_Acc,2024-06-27 11:32:58.422329903,-19.0,-62.0,11.0
1904-01-01 00:08:47.280069903,E4_Acc,2024-06-27 11:32:58.453579903,-20.0,-61.0,10.0
1904-01-01 00:08:47.311319903,E4_Acc,2024-06-27 11:32:58.484829903,-18.0,-61.0,10.0
1904-01-01 00:08:47.342569902,E4_Acc,2024-06-27 11:32:58.516079902,-19.0,-61.0,9.0
1904-01-01 00:08:47.373819903,E4_Acc,2024-06-27 11:32:58.547329903,-19.0,-61.0,8.0
1904-01-01 00:08:47.405069903,E4_Acc,2024-06-27 11:32:58.578579903,-18.0,-61.0,8.0
1904-01-01 00:08:47.436319903,E4_Acc,2024-06-27 11:32:58.609829903,-18.0,-61.0,8.0
1904-01-01 00:08:47.467579916,E4_Acc,2024-06-27 11:32:58.641089916,-18.0,-61.0,8.0
1904-01-01 00:08:47.498829916,E4_Acc,2024-06-27 11:32:58.672339916,-19.0,-62.0,7.0
1904-01-01 00:08:47.530079916,E4_Acc,2024-06-27 11:32:58.703589916,-18.0,-62.0,5.0
1904-01-01 00:08:47.561329916,E4_Acc,2024-06-27 11:32:58.734839916,-16.0,-62.0,11.0
1904-01-01 00:08:47.592579916,E4_Acc,2024-06-27 11:32:58.766089916,-18.0,-61.0,11.0
1904-01-01 00:08:47.623829916,E4_Acc,2024-06-27 11:32:58.797339916,-18.0,-62.0,12.0
1904-01-01 00:08:47.655079916,E4_Acc,2024-06-27 11:32:58.828589916,-19.0,-61.0,11.0
1904-01-01 00:08:47.686339930,E4_Acc,2024-06-27 11:32:58.859849930,-18.0,-62.0,12.0
1904-01-01 00:08:47.717589930,E4_Acc,2024-06-27 11:32:58.891099930,-17.0,-62.0,11.0
1904-01-01 00:08:47.748839930,E4_Acc,2024-06-27 11:32:58.922349930,-17.0,-62.0,10.0
1904-01-01 00:08:47.780089930,E4_Acc,2024-06-27 11:32:58.953599930,-20.0,-63.0,9.0
1904-01-01 00:08:47.811339930,E4_Acc,2024-06-27 11:32:58.984849930,-17.0,-62.0,10.0
1904-01-01 00:08:47.842589929,E4_Acc,2024-06-27 11:32:59.016099929,-16.0,-61.0,9.0
1904-01-01 00:08:47.873839930,E4_Acc,2024-06-27 11:32:59.047349930,-19.0,-62.0,9.0
1904-01-01 00:08:47.905099943,E4_Acc,2024-06-27 11:32:59.078609943,-20.0,-62.0,6.0
1904-01-01 00:08:47.936349943,E4_Acc,2024-06-27 11:32:59.109859943,-18.0,-62.0,15.0
1904-01-01 00:08:47.967599943,E4_Acc,2024-06-27 11:32:59.141109943,-18.0,-61.0,12.0
1904-01-01 00:08:47.998849943,E4_Acc,2024-06-27 11:32:59.172359943,-21.0,-61.0,10.0
1904-01-01 00:08:48.030099943,E4_Acc,2024-06-27 11:32:59.203609943,-18.0,-61.0,10.0
1904-01-01 00:08:48.061349943,E4_Acc,2024-06-27 11:32:59.234859943,-21.0,-61.0,8.0
1904-01-01 00:08:48.092599943,E4_Acc,2024-06-27 11:32:59.266109943,-19.0,-61.0,6.0
1904-01-01 00:08:48.123859957,E4_Acc,2024-06-27 11:32:59.297369957,-15.0,-62.0,8.0
1904-01-01 00:08:48.155109957,E4_Acc,2024-06-27 11:32:59.328619957,-19.0,-62.0,8.0
1904-01-01 00:08:48.186359957,E4_Acc,2024-06-27 11:32:59.359869957,-19.0,-63.0,16.0
1904-01-01 00:08:48.217609957,E4_Acc,2024-06-27 11:32:59.391119957,-16.0,-61.0,17.0
1904-01-01 00:08:48.248859957,E4_Acc,2024-06-27 11:32:59.422369957,-19.0,-62.0,13.0
1904-01-01 00:08:48.280109957,E4_Acc,2024-06-27 11:32:59.453619957,-22.0,-61.0,9.0
1904-01-01 00:08:48.311369971,E4_Acc,2024-06-27 11:32:59.484879971,-19.0,-60.0,8.0
1904-01-01 00:08:48.342619971,E4_Acc,2024-06-27 11:32:59.516129971,-16.0,-61.0,9.0
1904-01-01 00:08:48.373869971,E4_Acc,2024-06-27 11:32:59.547379971,-16.0,-62.0,9.0
1904-01-01 00:08:48.405119971,E4_Acc,2024-06-27 11:32:59.578629971,-18.0,-62.0,12.0
1904-01-01 00:08:48.436369971,E4_Acc,2024-06-27 11:32:59.609879971,-18.0,-61.0,14.0
1904-01-01 00:08:48.467619971,E4_Acc,2024-06-27 11:32:59.641129971,-19.0,-61.0,13.0
1904-01-01 00:08:48.498869971,E4_Acc,2024-06-27 11:32:59.672379971,-21.0,-61.0,8.0
1904-01-01 00:08:48.530129984,E4_Acc,2024-06-27 11:32:59.703639984,-20.0,-60.0,9.0
1904-01-01 00:08:48.561379984,E4_Acc,2024-06-27 11:32:59.734889984,-17.0,-61.0,9.0
1904-01-01 00:08:48.592629984,E4_Acc,2024-06-27 11:32:59.766139984,-15.0,-61.0,6.0
1904-01-01 00:08:48.623879984,E4_Acc,2024-06-27 11:32:59.797389984,-15.0,-61.0,12.0
1904-01-01 00:08:48.655129984,E4_Acc,2024-06-27 11:32:59.828639984,-19.0,-61.0,14.0
1904-01-01 00:08:48.686379984,E4_Acc,2024-06-27 11:32:59.859889984,-19.0,-61.0,12.0
1904-01-01 00:08:48.717629984,E4_Acc,2024-06-27 11:32:59.891139984,-21.0,-61.0,12.0
1904-01-01 00:08:48.748889998,E4_Acc,2024-06-27 11:32:59.922399998,-17.0,-62.0,10.0
1904-01-01 00:08:48.780139998,E4_Acc,2024-06-27 11:32:59.953649998,-18.0,-62.0,9.0
1904-01-01 00:08:48.811389998,E4_Acc,2024-06-27 11:32:59.984899998,-18.0,-62.0,11.0
1904-01-01 00:08:48.842639997,E4_Acc,2024-06-27 11:33:00.016149997,-19.0,-62.0,12.0
1904-01-01 00:08:48.873889998,E4_Acc,2024-06-27 11:33:00.047399998,-19.0,-62.0,11.0
1904-01-01 00:08:48.905139998,E4_Acc,2024-06-27 11:33:00.078649998,-18.0,-62.0,12.0
1904-01-01 00:08:48.936389998,E4_Acc,2024-06-27 11:33:00.109899998,-18.0,-62.0,11.0
1904-01-01 00:08:48.967650011,E4_Acc,2024-06-27 11:33:00.141160011,-18.0,-61.0,11.0
1904-01-01 00:08:48.998900011,E4_Acc,2024-06-27 11:33:00.172410011,-17.0,-62.0,10.0
1904-01-01 00:08:49.030150011,E4_Acc,2024-06-27 11:33:00.203660011,-18.0,-62.0,10.0
1904-01-01 00:08:49.061400011,E4_Acc,2024-06-27 11:33:00.234910011,-18.0,-62.0,11.0
1904-01-01 00:08:49.092650010,E4_Acc,2024-06-27 11:33:00.266160010,-17.0,-61.0,11.0
1904-01-01 00:08:49.123900011,E4_Acc,2024-06-27 11:33:00.297410011,-18.0,-61.0,12.0
1904-01-01 00:08:49.155150011,E4_Acc,2024-06-27 11:33:00.328660011,-18.0,-61.0,11.0
1904-01-01 00:08:49.186410025,E4_Acc,2024-06-27 11:33:00.359920025,-18.0,-61.0,12.0
1904-01-01 00:08:49.217660025,E4_Acc,2024-06-27 11:33:00.391170025,-18.0,-61.0,11.0
1904-01-01 00:08:49.248910025,E4_Acc,2024-06-27 11:33:00.422420025,-18.0,-61.0,10.0
1904-01-01 00:08:49.280160025,E4_Acc,2024-06-27 11:33:00.453670025,-19.0,-61.0,10.0
1904-01-01 00:08:49.311410025,E4_Acc,2024-06-27 11:33:00.484920025,-19.0,-61.0,10.0
1904-01-01 00:08:49.342660025,E4_Acc,2024-06-27 11:33:00.516170025,-18.0,-61.0,11.0
1904-01-01 00:08:49.373910025,E4_Acc,2024-06-27 11:33:00.547420025,-18.0,-61.0,10.0
1904-01-01 00:08:49.405170038,E4_Acc,2024-06-27 11:33:00.578680038,-18.0,-61.0,10.0
1904-01-01 00:08:49.436420038,E4_Acc,2024-06-27 11:33:00.609930038,-18.0,-61.0,11.0
1904-01-01 00:08:49.467670038,E4_Acc,2024-06-27 11:33:00.641180038,-18.0,-61.0,11.0
1904-01-01 00:08:49.498920038,E4_Acc,2024-06-27 11:33:00.672430038,-18.0,-61.0,11.0
1904-01-01 00:08:49.530170038,E4_Acc,2024-06-27 11:33:00.703680038,-18.0,-62.0,11.0
1904-01-01 00:08:49.561420038,E4_Acc,2024-06-27 11:33:00.734930038,-18.0,-62.0,11.0
1904-01-01 00:08:49.592670038,E4_Acc,2024-06-27 11:33:00.766180038,-18.0,-61.0,11.0
1904-01-01 00:08:49.623930052,E4_Acc,2024-06-27 11:33:00.797440052,-18.0,-62.0,11.0
1904-01-01 00:08:49.655180052,E4_Acc,2024-06-27 11:33:00.828690052,-18.0,-62.0,10.0
1904-01-01 00:08:49.686430052,E4_Acc,2024-06-27 11:33:00.859940052,-18.0,-62.0,11.0
1904-01-01 00:08:49.717680052,E4_Acc,2024-06-27 11:33:00.891190052,-18.0,-62.0,11.0
1904-01-01 00:08:49.748930052,E4_Acc,2024-06-27 11:33:00.922440052,-18.0,-62.0,11.0
1904-01-01 00:08:49.780180052,E4_Acc,2024-06-27 11:33:00.953690052,-18.0,-62.0,10.0
1904-01-01 00:08:49.811430052,E4_Acc,2024-06-27 11:33:00.984940052,-18.0,-62.0,10.0
1904-01-01 00:08:49.842690066,E4_Acc,2024-06-27 11:33:01.016200066,-18.0,-61.0,10.0
1904-01-01 00:08:49.873940066,E4_Acc,2024-06-27 11:33:01.047450066,-18.0,-61.0,10.0
1904-01-01 00:08:49.905190066,E4_Acc,2024-06-27 11:33:01.078700066,-18.0,-61.0,11.0
1904-01-01 00:08:49.936440066,E4_Acc,2024-06-27 11:33:01.109950066,-18.0,-62.0,10.0
1904-01-01 00:08:49.967690066,E4_Acc,2024-06-27 11:33:01.141200066,-18.0,-62.0,10.0
1904-01-01 00:08:49.998940066,E4_Acc,2024-06-27 11:33:01.172450066,-18.0,-62.0,10.0
1904-01-01 00:08:50.030190066,E4_Acc,2024-06-27 11:33:01.203700066,-18.0,-62.0,11.0
1904-01-01 00:08:50.061450079,E4_Acc,2024-06-27 11:33:01.234960079,-18.0,-62.0,10.0
1904-01-01 00:08:50.092700079,E4_Acc,2024-06-27 11:33:01.266210079,-18.0,-62.0,10.0
1904-01-01 00:08:50.123950079,E4_Acc,2024-06-27 11:33:01.297460079,-18.0,-62.0,10.0
1904-01-01 00:08:50.155200079,E4_Acc,2024-06-27 11:33:01.328710079,-17.0,-61.0,11.0
1904-01-01 00:08:50.186450079,E4_Acc,2024-06-27 11:33:01.359960079,-18.0,-62.0,11.0
1904-01-01 00:08:50.217700079,E4_Acc,2024-06-27 11:33:01.391210079,-18.0,-62.0,11.0
1904-01-01 00:08:50.248950079,E4_Acc,2024-06-27 11:33:01.422460079,-18.0,-62.0,11.0
1904-01-01 00:08:50.280210093,E4_Acc,2024-06-27 11:33:01.453720093,-18.0,-62.0,11.0
1904-01-01 00:08:50.311460093,E4_Acc,2024-06-27 11:33:01.484970093,-18.0,-62.0,11.0
1904-01-01 00:08:50.342710093,E4_Acc,2024-06-27 11:33:01.516220093,-18.0,-62.0,11.0
1904-01-01 00:08:50.373960093,E4_Acc,2024-06-27 11:33:01.547470093,-18.0,-61.0,11.0
1904-01-01 00:08:50.405210093,E4_Acc,2024-06-27 11:33:01.578720093,-18.0,-60.0,10.0
1904-01-01 00:08:50.436460093,E4_Acc,2024-06-27 11:33:01.609970093,-18.0,-61.0,10.0
1904-01-01 00:08:50.467720106,E4_Acc,2024-06-27 11:33:01.641230106,-18.0,-61.0,9.0
1904-01-01 00:08:50.498970106,E4_Acc,2024-06-27 11:33:01.672480106,-18.0,-62.0,10.0
1904-01-01 00:08:50.530220106,E4_Acc,2024-06-27 11:33:01.703730106,-18.0,-62.0,10.0
1904-01-01 00:08:50.561470106,E4_Acc,2024-06-27 11:33:01.734980106,-18.0,-61.0,11.0
1904-01-01 00:08:50.592720106,E4_Acc,2024-06-27 11:33:01.766230106,-17.0,-61.0,11.0
1904-01-01 00:08:50.623970106,E4_Acc,2024-06-27 11:33:01.797480106,-18.0,-61.0,11.0
1904-01-01 00:08:50.655220106,E4_Acc,2024-06-27 11:33:01.828730106,-18.0,-62.0,11.0
1904-01-01 00:08:50.686479882,E4_Acc,2024-06-27 11:33:01.859989882,-18.0,-61.0,11.0
1904-01-01 00:08:50.717729882,E4_Acc,2024-06-27 11:33:01.891239882,-18.0,-62.0,11.0
1904-01-01 00:08:50.748979882,E4_Acc,2024-06-27 11:33:01.922489882,-19.0,-61.0,11.0
1904-01-01 00:08:50.780229882,E4_Acc,2024-06-27 11:33:01.953739882,-19.0,-62.0,10.0
1904-01-01 00:08:50.811479882,E4_Acc,2024-06-27 11:33:01.984989882,-20.0,-62.0,10.0
1904-01-01 00:08:50.842729882,E4_Acc,2024-06-27 11:33:02.016239882,-19.0,-62.0,10.0
1904-01-01 00:08:50.873979882,E4_Acc,2024-06-27 11:33:02.047489882,-20.0,-61.0,10.0
1904-01-01 00:08:50.905239895,E4_Acc,2024-06-27 11:33:02.078749895,-20.0,-61.0,10.0
1904-01-01 00:08:50.936489895,E4_Acc,2024-06-27 11:33:02.109999895,-20.0,-62.0,10.0
1904-01-01 00:08:50.967739895,E4_Acc,2024-06-27 11:33:02.141249895,-20.0,-62.0,10.0
1904-01-01 00:08:50.998989895,E4_Acc,2024-06-27 11:33:02.172499895,-19.0,-62.0,10.0
1904-01-01 00:08:51.030239895,E4_Acc,2024-06-27 11:33:02.203749895,-19.0,-62.0,10.0
1904-01-01 00:08:51.061489895,E4_Acc,2024-06-27 11:33:02.234999895,-19.0,-62.0,11.0
1904-01-01 00:08:51.092739895,E4_Acc,2024-06-27 11:33:02.266249895,-18.0,-62.0,11.0
1904-01-01 00:08:51.123999909,E4_Acc,2024-06-27 11:33:02.297509909,-18.0,-62.0,10.0
1904-01-01 00:08:51.155249909,E4_Acc,2024-06-27 11:33:02.328759909,-17.0,-62.0,10.0
1904-01-01 00:08:51.186499909,E4_Acc,2024-06-27 11:33:02.360009909,-17.0,-61.0,9.0
1904-01-01 00:08:51.217749909,E4_Acc,2024-06-27 11:33:02.391259909,-17.0,-61.0,9.0
1904-01-01 00:08:51.248999909,E4_Acc,2024-06-27 11:33:02.422509909,-17.0,-61.0,9.0
1904-01-01 00:08:51.280249909,E4_Acc,2024-06-27 11:33:02.453759909,-16.0,-61.0,8.0
1904-01-01 00:08:51.311499909,E4_Acc,2024-06-27 11:33:02.485009909,-17.0,-61.0,8.0
1904-01-01 00:08:51.342759922,E4_Acc,2024-06-27 11:33:02.516269922,-17.0,-61.0,8.0
1904-01-01 00:08:51.374009922,E4_Acc,2024-06-27 11:33:02.547519922,-17.0,-61.0,9.0
1904-01-01 00:08:51.405259922,E4_Acc,2024-06-27 11:33:02.578769922,-18.0,-61.0,9.0
1904-01-01 00:08:51.436509922,E4_Acc,2024-06-27 11:33:02.610019922,-18.0,-61.0,9.0
1904-01-01 00:08:51.467759922,E4_Acc,2024-06-27 11:33:02.641269922,-18.0,-61.0,10.0
1904-01-01 00:08:51.499009922,E4_Acc,2024-06-27 11:33:02.672519922,-19.0,-62.0,10.0
1904-01-01 00:08:51.530259922,E4_Acc,2024-06-27 11:33:02.703769922,-19.0,-61.0,11.0
1904-01-01 00:08:51.561519936,E4_Acc,2024-06-27 11:33:02.735029936,-18.0,-61.0,11.0
1904-01-01 00:08:51.592769936,E4_Acc,2024-06-27 11:33:02.766279936,-19.0,-62.0,11.0
1904-01-01 00:08:51.624019936,E4_Acc,2024-06-27 11:33:02.797529936,-19.0,-62.0,11.0
1904-01-01 00:08:51.655269936,E4_Acc,2024-06-27 11:33:02.828779936,-18.0,-62.0,10.0
1904-01-01 00:08:51.686519936,E4_Acc,2024-06-27 11:33:02.860029936,-18.0,-62.0,10.0
1904-01-01 00:08:51.717769936,E4_Acc,2024-06-27 11:33:02.891279936,-17.0,-61.0,10.0
1904-01-01 00:08:51.749019936,E4_Acc,2024-06-27 11:33:02.922529936,-17.0,-62.0,9.0
1904-01-01 00:08:51.780279949,E4_Acc,2024-06-27 11:33:02.953789949,-16.0,-62.0,9.0
1904-01-01 00:08:51.811529949,E4_Acc,2024-06-27 11:33:02.985039949,-17.0,-62.0,9.0
1904-01-01 00:08:51.842779949,E4_Acc,2024-06-27 11:33:03.016289949,-17.0,-62.0,9.0
1904-01-01 00:08:51.874029949,E4_Acc,2024-06-27 11:33:03.047539949,-17.0,-62.0,9.0
1904-01-01 00:08:51.905279949,E4_Acc,2024-06-27 11:33:03.078789949,-17.0,-62.0,9.0
1904-01-01 00:08:51.936529949,E4_Acc,2024-06-27 11:33:03.110039949,-17.0,-62.0,9.0
1904-01-01 00:08:51.967779949,E4_Acc,2024-06-27 11:33:03.141289949,-18.0,-62.0,10.0
1904-01-01 00:08:51.999039963,E4_Acc,2024-06-27 11:33:03.172549963,-18.0,-62.0,10.0
1904-01-01 00:08:52.030289963,E4_Acc,2024-06-27 11:33:03.203799963,-18.0,-61.0,10.0
1904-01-01 00:08:52.061539963,E4_Acc,2024-06-27 11:33:03.235049963,-18.0,-61.0,10.0
1904-01-01 00:08:52.092789962,E4_Acc,2024-06-27 11:33:03.266299962,-19.0,-62.0,10.0
1904-01-01 00:08:52.124039963,E4_Acc,2024-06-27 11:33:03.297549963,-19.0,-62.0,10.0
1904-01-01 00:08:52.155289963,E4_Acc,2024-06-27 11:33:03.328799963,-18.0,-62.0,10.0
1904-01-01 00:08:52.186539963,E4_Acc,2024-06-27 11:33:03.360049963,-18.0,-62.0,9.0
1904-01-01 00:08:52.217799977,E4_Acc,2024-06-27 11:33:03.391309977,-18.0,-61.0,9.0
1904-01-01 00:08:52.249049977,E4_Acc,2024-06-27 11:33:03.422559977,-18.0,-62.0,9.0
1904-01-01 00:08:52.280299977,E4_Acc,2024-06-27 11:33:03.453809977,-18.0,-62.0,9.0
1904-01-01 00:08:52.311549977,E4_Acc,2024-06-27 11:33:03.485059977,-18.0,-62.0,9.0
1904-01-01 00:08:52.342799977,E4_Acc,2024-06-27 11:33:03.516309977,-17.0,-62.0,9.0
1904-01-01 00:08:52.374049977,E4_Acc,2024-06-27 11:33:03.547559977,-17.0,-62.0,9.0
1904-01-01 00:08:52.405299977,E4_Acc,2024-06-27 11:33:03.578809977,-17.0,-61.0,9.0
1904-01-01 00:08:52.436559990,E4_Acc,2024-06-27 11:33:03.610069990,-17.0,-62.0,9.0
1904-01-01 00:08:52.467809990,E4_Acc,2024-06-27 11:33:03.641319990,-17.0,-62.0,10.0
1904-01-01 00:08:52.499059990,E4_Acc,2024-06-27 11:33:03.672569990,-17.0,-62.0,10.0
1904-01-01 00:08:52.530309990,E4_Acc,2024-06-27 11:33:03.703819990,-17.0,-62.0,10.0
1904-01-01 00:08:52.561559990,E4_Acc,2024-06-27 11:33:03.735069990,-17.0,-62.0,10.0
1904-01-01 00:08:52.592809990,E4_Acc,2024-06-27 11:33:03.766319990,-17.0,-62.0,10.0
1904-01-01 00:08:52.624059990,E4_Acc,2024-06-27 11:33:03.797569990,-18.0,-62.0,10.0
1904-01-01 00:08:52.655320004,E4_Acc,2024-06-27 11:33:03.828830004,-18.0,-62.0,10.0
1904-01-01 00:08:52.686570004,E4_Acc,2024-06-27 11:33:03.860080004,-18.0,-62.0,9.0
1904-01-01 00:08:52.717820004,E4_Acc,2024-06-27 11:33:03.891330004,-18.0,-61.0,9.0
1904-01-01 00:08:52.749070004,E4_Acc,2024-06-27 11:33:03.922580004,-17.0,-61.0,9.0
1904-01-01 00:08:52.780320004,E4_Acc,2024-06-27 11:33:03.953830004,-18.0,-62.0,9.0
1904-01-01 00:08:52.811570004,E4_Acc,2024-06-27 11:33:03.985080004,-18.0,-62.0,9.0
1904-01-01 00:08:52.842830016,E4_Acc,2024-06-27 11:33:04.016340016,-18.0,-62.0,9.0
1904-01-01 00:08:52.874080017,E4_Acc,2024-06-27 11:33:04.047590017,-17.0,-62.0,9.0
1904-01-01 00:08:52.905330017,E4_Acc,2024-06-27 11:33:04.078840017,-17.0,-61.0,9.0
1904-01-01 00:08:52.936580017,E4_Acc,2024-06-27 11:33:04.110090017,-17.0,-62.0,10.0
1904-01-01 00:08:52.967830017,E4_Acc,2024-06-27 11:33:04.141340017,-17.0,-62.0,10.0
1904-01-01 00:08:52.999080017,E4_Acc,2024-06-27 11:33:04.172590017,-17.0,-62.0,10.0
1904-01-01 00:08:53.030330017,E4_Acc,2024-06-27 11:33:04.203840017,-17.0,-62.0,9.0
1904-01-01 00:08:53.061590031,E4_Acc,2024-06-27 11:33:04.235100031,-17.0,-62.0,9.0
1904-01-01 00:08:53.092840031,E4_Acc,2024-06-27 11:33:04.266350031,-17.0,-62.0,9.0
1904-01-01 00:08:53.124090031,E4_Acc,2024-06-27 11:33:04.297600031,-17.0,-62.0,9.0
1904-01-01 00:08:53.155340031,E4_Acc,2024-06-27 11:33:04.328850031,-17.0,-62.0,9.0
1904-01-01 00:08:53.186590031,E4_Acc,2024-06-27 11:33:04.360100031,-17.0,-62.0,9.0
1904-01-01 00:08:53.217840031,E4_Acc,2024-06-27 11:33:04.391350031,-17.0,-62.0,9.0
1904-01-01 00:08:53.249090031,E4_Acc,2024-06-27 11:33:04.422600031,-17.0,-62.0,9.0
1904-01-01 00:08:53.280350044,E4_Acc,2024-06-27 11:33:04.453860044,-17.0,-62.0,9.0
1904-01-01 00:08:53.311600044,E4_Acc,2024-06-27 11:33:04.485110044,-17.0,-62.0,9.0
1904-01-01 00:08:53.342850044,E4_Acc,2024-06-27 11:33:04.516360044,-17.0,-62.0,10.0
1904-01-01 00:08:53.374100044,E4_Acc,2024-06-27 11:33:04.547610044,-17.0,-62.0,10.0
1904-01-01 00:08:53.405350044,E4_Acc,2024-06-27 11:33:04.578860044,-17.0,-62.0,10.0
1904-01-01 00:08:53.436600044,E4_Acc,2024-06-27 11:33:04.610110044,-17.0,-62.0,9.0
1904-01-01 00:08:53.467850044,E4_Acc,2024-06-27 11:33:04.641360044,-17.0,-62.0,9.0
1904-01-01 00:08:53.499110058,E4_Acc,2024-06-27 11:33:04.672620058,-17.0,-62.0,9.0
1904-01-01 00:08:53.530360058,E4_Acc,2024-06-27 11:33:04.703870058,-17.0,-62.0,9.0
1904-01-01 00:08:53.561610058,E4_Acc,2024-06-27 11:33:04.735120058,-17.0,-62.0,9.0
1904-01-01 00:08:53.592860058,E4_Acc,2024-06-27 11:33:04.766370058,-18.0,-62.0,9.0
1904-01-01 00:08:53.624110058,E4_Acc,2024-06-27 11:33:04.797620058,-18.0,-62.0,9.0
1904-01-01 00:08:53.655360058,E4_Acc,2024-06-27 11:33:04.828870058,-18.0,-62.0,9.0
1904-01-01 00:08:53.686610058,E4_Acc,2024-06-27 11:33:04.860120058,-18.0,-62.0,9.0
1904-01-01 00:08:53.717870072,E4_Acc,2024-06-27 11:33:04.891380072,-18.0,-62.0,9.0
1904-01-01 00:08:53.749120072,E4_Acc,2024-06-27 11:33:04.922630072,-17.0,-62.0,9.0
1904-01-01 00:08:53.780370072,E4_Acc,2024-06-27 11:33:04.953880072,-17.0,-62.0,9.0
1904-01-01 00:08:53.811620072,E4_Acc,2024-06-27 11:33:04.985130072,-18.0,-62.0,9.0
1904-01-01 00:08:53.842870071,E4_Acc,2024-06-27 11:33:05.016380071,-18.0,-62.0,9.0
1904-01-01 00:08:53.874120072,E4_Acc,2024-06-27 11:33:05.047630072,-17.0,-62.0,9.0
1904-01-01 00:08:53.905370072,E4_Acc,2024-06-27 11:33:05.078880072,-17.0,-62.0,9.0
1904-01-01 00:08:53.936630085,E4_Acc,2024-06-27 11:33:05.110140085,-18.0,-62.0,9.0
1904-01-01 00:08:53.967880085,E4_Acc,2024-06-27 11:33:05.141390085,-18.0,-62.0,9.0
1904-01-01 00:08:53.999130085,E4_Acc,2024-06-27 11:33:05.172640085,-18.0,-62.0,9.0
1904-01-01 00:08:54.030380085,E4_Acc,2024-06-27 11:33:05.203890085,-18.0,-62.0,9.0
1904-01-01 00:08:54.061630085,E4_Acc,2024-06-27 11:33:05.235140085,-18.0,-62.0,9.0
1904-01-01 00:08:54.092880085,E4_Acc,2024-06-27 11:33:05.266390085,-18.0,-62.0,9.0
1904-01-01 00:08:54.124130085,E4_Acc,2024-06-27 11:33:05.297640085,-17.0,-62.0,9.0
1904-01-01 00:08:54.155390099,E4_Acc,2024-06-27 11:33:05.328900099,-17.0,-62.0,9.0
1904-01-01 00:08:54.186640099,E4_Acc,2024-06-27 11:33:05.360150099,-17.0,-62.0,9.0
1904-01-01 00:08:54.217890099,E4_Acc,2024-06-27 11:33:05.391400099,-17.0,-62.0,9.0
1904-01-01 00:08:54.249140099,E4_Acc,2024-06-27 11:33:05.422650099,-17.0,-62.0,9.0
1904-01-01 00:08:54.280390099,E4_Acc,2024-06-27 11:33:05.453900099,-17.0,-62.0,9.0
1904-01-01 00:08:54.311640099,E4_Acc,2024-06-27 11:33:05.485150099,-17.0,-62.0,9.0
1904-01-01 00:08:54.342890098,E4_Acc,2024-06-27 11:33:05.516400098,-17.0,-62.0,9.0
1904-01-01 00:08:54.374150112,E4_Acc,2024-06-27 11:33:05.547660112,-18.0,-62.0,9.0
1904-01-01 00:08:54.405400112,E4_Acc,2024-06-27 11:33:05.578910112,-18.0,-62.0,9.0
1904-01-01 00:08:54.436650112,E4_Acc,2024-06-27 11:33:05.610160112,-18.0,-62.0,9.0
1904-01-01 00:08:54.467900112,E4_Acc,2024-06-27 11:33:05.641410112,-17.0,-62.0,9.0
1904-01-01 00:08:54.499150112,E4_Acc,2024-06-27 11:33:05.672660112,-17.0,-62.0,9.0
1904-01-01 00:08:54.530400112,E4_Acc,2024-06-27 11:33:05.703910112,-17.0,-62.0,9.0
1904-01-01 00:08:54.561650112,E4_Acc,2024-06-27 11:33:05.735160112,-18.0,-61.0,9.0
1904-01-01 00:08:54.592909888,E4_Acc,2024-06-27 11:33:05.766419888,-18.0,-62.0,9.0
1904-01-01 00:08:54.624159888,E4_Acc,2024-06-27 11:33:05.797669888,-18.0,-62.0,8.0
1904-01-01 00:08:54.655409888,E4_Acc,2024-06-27 11:33:05.828919888,-18.0,-62.0,9.0
1904-01-01 00:08:54.686659888,E4_Acc,2024-06-27 11:33:05.860169888,-18.0,-61.0,8.0
1904-01-01 00:08:54.717909888,E4_Acc,2024-06-27 11:33:05.891419888,-18.0,-61.0,8.0
1904-01-01 00:08:54.749159888,E4_Acc,2024-06-27 11:33:05.922669888,-18.0,-61.0,9.0
1904-01-01 00:08:54.780409888,E4_Acc,2024-06-27 11:33:05.953919888,-19.0,-62.0,9.0
1904-01-01 00:08:54.811669901,E4_Acc,2024-06-27 11:33:05.985179901,-19.0,-62.0,10.0
1904-01-01 00:08:54.842919901,E4_Acc,2024-06-27 11:33:06.016429901,-19.0,-62.0,10.0
1904-01-01 00:08:54.874169901,E4_Acc,2024-06-27 11:33:06.047679901,-19.0,-62.0,10.0
1904-01-01 00:08:54.905419901,E4_Acc,2024-06-27 11:33:06.078929901,-19.0,-61.0,10.0
1904-01-01 00:08:54.936669901,E4_Acc,2024-06-27 11:33:06.110179901,-18.0,-61.0,9.0
1904-01-01 00:08:54.967919901,E4_Acc,2024-06-27 11:33:06.141429901,-18.0,-62.0,10.0
1904-01-01 00:08:54.999169901,E4_Acc,2024-06-27 11:33:06.172679901,-18.0,-62.0,9.0
1904-01-01 00:08:55.030429915,E4_Acc,2024-06-27 11:33:06.203939915,-18.0,-62.0,9.0
1904-01-01 00:08:55.061679915,E4_Acc,2024-06-27 11:33:06.235189915,-18.0,-62.0,9.0
1904-01-01 00:08:55.092929915,E4_Acc,2024-06-27 11:33:06.266439915,-18.0,-62.0,9.0
1904-01-01 00:08:55.124179915,E4_Acc,2024-06-27 11:33:06.297689915,-18.0,-62.0,9.0
1904-01-01 00:08:55.155429915,E4_Acc,2024-06-27 11:33:06.328939915,-18.0,-62.0,9.0
1904-01-01 00:08:55.186679915,E4_Acc,2024-06-27 11:33:06.360189915,-18.0,-62.0,9.0
1904-01-01 00:08:55.217929915,E4_Acc,2024-06-27 11:33:06.391439915,-18.0,-62.0,9.0
1904-01-01 00:08:55.249189928,E4_Acc,2024-06-27 11:33:06.422699928,-18.0,-62.0,9.0
1904-01-01 00:08:55.280439928,E4_Acc,2024-06-27 11:33:06.453949928,-18.0,-61.0,9.0
1904-01-01 00:08:55.311689928,E4_Acc,2024-06-27 11:33:06.485199928,-19.0,-62.0,10.0
1904-01-01 00:08:55.342939928,E4_Acc,2024-06-27 11:33:06.516449928,-19.0,-62.0,10.0
1904-01-01 00:08:55.374189928,E4_Acc,2024-06-27 11:33:06.547699928,-19.0,-61.0,10.0
1904-01-01 00:08:55.405439928,E4_Acc,2024-06-27 11:33:06.578949928,-19.0,-61.0,10.0
1904-01-01 00:08:55.436689928,E4_Acc,2024-06-27 11:33:06.610199928,-19.0,-61.0,10.0
1904-01-01 00:08:55.467949942,E4_Acc,2024-06-27 11:33:06.641459942,-19.0,-61.0,10.0
1904-01-01 00:08:55.499199942,E4_Acc,2024-06-27 11:33:06.672709942,-19.0,-62.0,10.0
1904-01-01 00:08:55.530449942,E4_Acc,2024-06-27 11:33:06.703959942,-19.0,-62.0,10.0
1904-01-01 00:08:55.561699942,E4_Acc,2024-06-27 11:33:06.735209942,-18.0,-61.0,10.0
1904-01-01 00:08:55.592949942,E4_Acc,2024-06-27 11:33:06.766459942,-18.0,-61.0,10.0
1904-01-01 00:08:55.624199942,E4_Acc,2024-06-27 11:33:06.797709942,-18.0,-62.0,10.0
1904-01-01 00:08:55.655459955,E4_Acc,2024-06-27 11:33:06.828969955,-19.0,-62.0,10.0
1904-01-01 00:08:55.686709955,E4_Acc,2024-06-27 11:33:06.860219955,-19.0,-62.0,10.0
1904-01-01 00:08:55.717959955,E4_Acc,2024-06-27 11:33:06.891469955,-19.0,-61.0,10.0
1904-01-01 00:08:55.749209955,E4_Acc,2024-06-27 11:33:06.922719955,-18.0,-61.0,9.0
1904-01-01 00:08:55.780459955,E4_Acc,2024-06-27 11:33:06.953969955,-19.0,-61.0,9.0
1904-01-01 00:08:55.811709955,E4_Acc,2024-06-27 11:33:06.985219955,-19.0,-62.0,10.0
1904-01-01 00:08:55.842959955,E4_Acc,2024-06-27 11:33:07.016469955,-19.0,-61.0,10.0
1904-01-01 00:08:55.874219969,E4_Acc,2024-06-27 11:33:07.047729969,-19.0,-61.0,10.0
1904-01-01 00:08:55.905469969,E4_Acc,2024-06-27 11:33:07.078979969,-19.0,-61.0,10.0
1904-01-01 00:08:55.936719969,E4_Acc,2024-06-27 11:33:07.110229969,-19.0,-62.0,9.0
1904-01-01 00:08:55.967969969,E4_Acc,2024-06-27 11:33:07.141479969,-19.0,-61.0,10.0
1904-01-01 00:08:55.999219969,E4_Acc,2024-06-27 11:33:07.172729969,-19.0,-61.0,10.0
1904-01-01 00:08:56.030469969,E4_Acc,2024-06-27 11:33:07.203979969,-18.0,-61.0,10.0
1904-01-01 00:08:56.061719969,E4_Acc,2024-06-27 11:33:07.235229969,-18.0,-61.0,10.0
1904-01-01 00:08:56.092979983,E4_Acc,2024-06-27 11:33:07.266489983,-18.0,-62.0,9.0
1904-01-01 00:08:56.124229983,E4_Acc,2024-06-27 11:33:07.297739983,-18.0,-62.0,9.0
1904-01-01 00:08:56.155479983,E4_Acc,2024-06-27 11:33:07.328989983,-17.0,-61.0,9.0
1904-01-01 00:08:56.186729983,E4_Acc,2024-06-27 11:33:07.360239983,-17.0,-61.0,9.0
1904-01-01 00:08:56.217979983,E4_Acc,2024-06-27 11:33:07.391489983,-18.0,-61.0,9.0
1904-01-01 00:08:56.249229983,E4_Acc,2024-06-27 11:33:07.422739983,-18.0,-62.0,9.0
1904-01-01 00:08:56.280479983,E4_Acc,2024-06-27 11:33:07.453989983,-19.0,-62.0,9.0
1904-01-01 00:08:56.311739996,E4_Acc,2024-06-27 11:33:07.485249996,-19.0,-62.0,9.0
1904-01-01 00:08:56.342989995,E4_Acc,2024-06-27 11:33:07.516499995,-19.0,-61.0,9.0
1904-01-01 00:08:56.374239996,E4_Acc,2024-06-27 11:33:07.547749996,-19.0,-61.0,9.0
1904-01-01 00:08:56.405489996,E4_Acc,2024-06-27 11:33:07.578999996,-19.0,-62.0,10.0
1904-01-01 00:08:56.436739996,E4_Acc,2024-06-27 11:33:07.610249996,-19.0,-62.0,10.0
1904-01-01 00:08:56.467989996,E4_Acc,2024-06-27 11:33:07.641499996,-19.0,-62.0,10.0
1904-01-01 00:08:56.499239996,E4_Acc,2024-06-27 11:33:07.672749996,-19.0,-62.0,10.0
1904-01-01 00:08:56.530500010,E4_Acc,2024-06-27 11:33:07.704010010,-18.0,-62.0,10.0
1904-01-01 00:08:56.561750010,E4_Acc,2024-06-27 11:33:07.735260010,-18.0,-62.0,10.0
1904-01-01 00:08:56.593000010,E4_Acc,2024-06-27 11:33:07.766510010,-18.0,-62.0,9.0
1904-01-01 00:08:56.624250010,E4_Acc,2024-06-27 11:33:07.797760010,-18.0,-61.0,9.0
1904-01-01 00:08:56.655500010,E4_Acc,2024-06-27 11:33:07.829010010,-18.0,-61.0,9.0
1904-01-01 00:08:56.686750010,E4_Acc,2024-06-27 11:33:07.860260010,-19.0,-61.0,8.0
1904-01-01 00:08:56.718000010,E4_Acc,2024-06-27 11:33:07.891510010,-19.0,-61.0,8.0
1904-01-01 00:08:56.749260023,E4_Acc,2024-06-27 11:33:07.922770023,-19.0,-62.0,9.0
1904-01-01 00:08:56.780510023,E4_Acc,2024-06-27 11:33:07.954020023,-19.0,-62.0,9.0
1904-01-01 00:08:56.811760023,E4_Acc,2024-06-27 11:33:07.985270023,-19.0,-61.0,9.0
1904-01-01 00:08:56.843010023,E4_Acc,2024-06-27 11:33:08.016520023,-19.0,-61.0,9.0
1904-01-01 00:08:56.874260023,E4_Acc,2024-06-27 11:33:08.047770023,-19.0,-61.0,9.0
1904-01-01 00:08:56.905510023,E4_Acc,2024-06-27 11:33:08.079020023,-18.0,-61.0,9.0
1904-01-01 00:08:56.936760023,E4_Acc,2024-06-27 11:33:08.110270023,-19.0,-62.0,10.0
1904-01-01 00:08:56.968020037,E4_Acc,2024-06-27 11:33:08.141530037,-18.0,-62.0,10.0
1904-01-01 00:08:56.999270037,E4_Acc,2024-06-27 11:33:08.172780037,-18.0,-61.0,10.0
1904-01-01 00:08:57.030520037,E4_Acc,2024-06-27 11:33:08.204030037,-18.0,-62.0,9.0
1904-01-01 00:08:57.061770037,E4_Acc,2024-06-27 11:33:08.235280037,-18.0,-61.0,9.0
1904-01-01 00:08:57.093020037,E4_Acc,2024-06-27 11:33:08.266530037,-19.0,-61.0,9.0
1904-01-01 00:08:57.124270037,E4_Acc,2024-06-27 11:33:08.297780037,-18.0,-62.0,9.0
1904-01-01 00:08:57.155520037,E4_Acc,2024-06-27 11:33:08.329030037,-19.0,-62.0,9.0
1904-01-01 00:08:57.186780051,E4_Acc,2024-06-27 11:33:08.360290051,-18.0,-62.0,9.0
1904-01-01 00:08:57.218030051,E4_Acc,2024-06-27 11:33:08.391540051,-18.0,-61.0,9.0
1904-01-01 00:08:57.249280051,E4_Acc,2024-06-27 11:33:08.422790051,-19.0,-62.0,9.0
1904-01-01 00:08:57.280530051,E4_Acc,2024-06-27 11:33:08.454040051,-19.0,-62.0,9.0
1904-01-01 00:08:57.311780051,E4_Acc,2024-06-27 11:33:08.485290051,-19.0,-61.0,9.0
1904-01-01 00:08:57.343030051,E4_Acc,2024-06-27 11:33:08.516540051,-19.0,-61.0,9.0
1904-01-01 00:08:57.374280051,E4_Acc,2024-06-27 11:33:08.547790051,-19.0,-62.0,9.0
1904-01-01 00:08:57.405540064,E4_Acc,2024-06-27 11:33:08.579050064,-19.0,-62.0,9.0
1904-01-01 00:08:57.436790064,E4_Acc,2024-06-27 11:33:08.610300064,-18.0,-61.0,9.0
1904-01-01 00:08:57.468040064,E4_Acc,2024-06-27 11:33:08.641550064,-18.0,-62.0,9.0
1904-01-01 00:08:57.499290064,E4_Acc,2024-06-27 11:33:08.672800064,-18.0,-62.0,9.0
1904-01-01 00:08:57.530540064,E4_Acc,2024-06-27 11:33:08.704050064,-19.0,-62.0,9.0
1904-01-01 00:08:57.561790064,E4_Acc,2024-06-27 11:33:08.735300064,-19.0,-62.0,10.0
1904-01-01 00:08:57.593040064,E4_Acc,2024-06-27 11:33:08.766550064,-19.0,-62.0,10.0
1904-01-01 00:08:57.624300078,E4_Acc,2024-06-27 11:33:08.797810078,-19.0,-62.0,10.0
1904-01-01 00:08:57.655550078,E4_Acc,2024-06-27 11:33:08.829060078,-19.0,-62.0,11.0
1904-01-01 00:08:57.686800078,E4_Acc,2024-06-27 11:33:08.860310078,-19.0,-62.0,11.0
1904-01-01 00:08:57.718050078,E4_Acc,2024-06-27 11:33:08.891560078,-19.0,-62.0,11.0
1904-01-01 00:08:57.749300078,E4_Acc,2024-06-27 11:33:08.922810078,-20.0,-62.0,11.0
1904-01-01 00:08:57.780550078,E4_Acc,2024-06-27 11:33:08.954060078,-19.0,-61.0,10.0
1904-01-01 00:08:57.811810091,E4_Acc,2024-06-27 11:33:08.985320091,-19.0,-61.0,10.0
1904-01-01 00:08:57.843060090,E4_Acc,2024-06-27 11:33:09.016570090,-19.0,-61.0,10.0
1904-01-01 00:08:57.874310091,E4_Acc,2024-06-27 11:33:09.047820091,-19.0,-61.0,10.0
1904-01-01 00:08:57.905560091,E4_Acc,2024-06-27 11:33:09.079070091,-20.0,-61.0,9.0
1904-01-01 00:08:57.936810091,E4_Acc,2024-06-27 11:33:09.110320091,-19.0,-61.0,9.0
1904-01-01 00:08:57.968060091,E4_Acc,2024-06-27 11:33:09.141570091,-19.0,-61.0,9.0
1904-01-01 00:08:57.999310091,E4_Acc,2024-06-27 11:33:09.172820091,-19.0,-60.0,9.0
1904-01-01 00:08:58.030570105,E4_Acc,2024-06-27 11:33:09.204080105,-18.0,-60.0,9.0
1904-01-01 00:08:58.061820105,E4_Acc,2024-06-27 11:33:09.235330105,-18.0,-60.0,9.0
1904-01-01 00:08:58.093070105,E4_Acc,2024-06-27 11:33:09.266580105,-18.0,-61.0,9.0
1904-01-01 00:08:58.124320105,E4_Acc,2024-06-27 11:33:09.297830105,-18.0,-61.0,10.0
1904-01-01 00:08:58.155570105,E4_Acc,2024-06-27 11:33:09.329080105,-19.0,-61.0,11.0
1904-01-01 00:08:58.186820105,E4_Acc,2024-06-27 11:33:09.360330105,-19.0,-61.0,11.0
1904-01-01 00:08:58.218070105,E4_Acc,2024-06-27 11:33:09.391580105,-19.0,-61.0,11.0
1904-01-01 00:08:58.249330118,E4_Acc,2024-06-27 11:33:09.422840118,-19.0,-61.0,11.0
1904-01-01 00:08:58.280580118,E4_Acc,2024-06-27 11:33:09.454090118,-20.0,-60.0,11.0
1904-01-01 00:08:58.311830118,E4_Acc,2024-06-27 11:33:09.485340118,-21.0,-61.0,11.0
1904-01-01 00:08:58.343080118,E4_Acc,2024-06-27 11:33:09.516590118,-21.0,-61.0,11.0
1904-01-01 00:08:58.374330118,E4_Acc,2024-06-27 11:33:09.547840118,-21.0,-61.0,11.0
1904-01-01 00:08:58.405580118,E4_Acc,2024-06-27 11:33:09.579090118,-21.0,-61.0,10.0
1904-01-01 00:08:58.436830118,E4_Acc,2024-06-27 11:33:09.610340118,-21.0,-61.0,10.0
1904-01-01 00:08:58.468089894,E4_Acc,2024-06-27 11:33:09.641599894,-20.0,-61.0,11.0
1904-01-01 00:08:58.499339894,E4_Acc,2024-06-27 11:33:09.672849894,-20.0,-61.0,10.0
1904-01-01 00:08:58.530589894,E4_Acc,2024-06-27 11:33:09.704099894,-19.0,-61.0,10.0
1904-01-01 00:08:58.561839894,E4_Acc,2024-06-27 11:33:09.735349894,-19.0,-61.0,10.0
1904-01-01 00:08:58.593089894,E4_Acc,2024-06-27 11:33:09.766599894,-19.0,-61.0,10.0
1904-01-01 00:08:58.624339894,E4_Acc,2024-06-27 11:33:09.797849894,-19.0,-61.0,10.0
1904-01-01 00:08:58.655589894,E4_Acc,2024-06-27 11:33:09.829099894,-19.0,-61.0,10.0
1904-01-01 00:08:58.686849907,E4_Acc,2024-06-27 11:33:09.860359907,-19.0,-62.0,10.0
1904-01-01 00:08:58.718099907,E4_Acc,2024-06-27 11:33:09.891609907,-19.0,-62.0,10.0
1904-01-01 00:08:58.749349907,E4_Acc,2024-06-27 11:33:09.922859907,-19.0,-61.0,10.0
1904-01-01 00:08:58.780599907,E4_Acc,2024-06-27 11:33:09.954109907,-20.0,-61.0,10.0
1904-01-01 00:08:58.811849907,E4_Acc,2024-06-27 11:33:09.985359907,-19.0,-61.0,10.0
1904-01-01 00:08:58.843099907,E4_Acc,2024-06-27 11:33:10.016609907,-19.0,-61.0,10.0
1904-01-01 00:08:58.874349907,E4_Acc,2024-06-27 11:33:10.047859907,-19.0,-62.0,10.0
1904-01-01 00:08:58.905609921,E4_Acc,2024-06-27 11:33:10.079119921,-19.0,-61.0,10.0
1904-01-01 00:08:58.936859921,E4_Acc,2024-06-27 11:33:10.110369921,-19.0,-61.0,10.0
1904-01-01 00:08:58.968109921,E4_Acc,2024-06-27 11:33:10.141619921,-19.0,-61.0,10.0
1904-01-01 00:08:58.999359921,E4_Acc,2024-06-27 11:33:10.172869921,-19.0,-61.0,10.0
1904-01-01 00:08:59.030609921,E4_Acc,2024-06-27 11:33:10.204119921,-19.0,-61.0,10.0
1904-01-01 00:08:59.061859921,E4_Acc,2024-06-27 11:33:10.235369921,-19.0,-61.0,10.0
1904-01-01 00:08:59.093109920,E4_Acc,2024-06-27 11:33:10.266619920,-20.0,-61.0,10.0
1904-01-01 00:08:59.124369934,E4_Acc,2024-06-27 11:33:10.297879934,-20.0,-61.0,10.0
1904-01-01 00:08:59.155619934,E4_Acc,2024-06-27 11:33:10.329129934,-20.0,-61.0,10.0
1904-01-01 00:08:59.186869934,E4_Acc,2024-06-27 11:33:10.360379934,-20.0,-61.0,9.0
1904-01-01 00:08:59.218119934,E4_Acc,2024-06-27 11:33:10.391629934,-20.0,-61.0,9.0
1904-01-01 00:08:59.249369934,E4_Acc,2024-06-27 11:33:10.422879934,-20.0,-61.0,9.0
1904-01-01 00:08:59.280619934,E4_Acc,2024-06-27 11:33:10.454129934,-20.0,-61.0,10.0
1904-01-01 00:08:59.311869934,E4_Acc,2024-06-27 11:33:10.485379934,-20.0,-61.0,10.0
1904-01-01 00:08:59.343129948,E4_Acc,2024-06-27 11:33:10.516639948,-19.0,-61.0,10.0
1904-01-01 00:08:59.374379948,E4_Acc,2024-06-27 11:33:10.547889948,-19.0,-61.0,10.0
1904-01-01 00:08:59.405629948,E4_Acc,2024-06-27 11:33:10.579139948,-19.0,-61.0,10.0
1904-01-01 00:08:59.436879948,E4_Acc,2024-06-27 11:33:10.610389948,-19.0,-61.0,11.0
1904-01-01 00:08:59.468129948,E4_Acc,2024-06-27 11:33:10.641639948,-19.0,-61.0,11.0
1904-01-01 00:08:59.499379948,E4_Acc,2024-06-27 11:33:10.672889948,-19.0,-61.0,10.0
1904-01-01 00:08:59.530629948,E4_Acc,2024-06-27 11:33:10.704139948,-19.0,-61.0,10.0
1904-01-01 00:08:59.561889961,E4_Acc,2024-06-27 11:33:10.735399961,-19.0,-61.0,10.0
1904-01-01 00:08:59.593139961,E4_Acc,2024-06-27 11:33:10.766649961,-20.0,-61.0,9.0
1904-01-01 00:08:59.624389961,E4_Acc,2024-06-27 11:33:10.797899961,-20.0,-61.0,9.0
1904-01-01 00:08:59.655639961,E4_Acc,2024-06-27 11:33:10.829149961,-20.0,-61.0,9.0
1904-01-01 00:08:59.686889961,E4_Acc,2024-06-27 11:33:10.860399961,-20.0,-61.0,9.0
1904-01-01 00:08:59.718139961,E4_Acc,2024-06-27 11:33:10.891649961,-20.0,-61.0,10.0
1904-01-01 00:08:59.749389961,E4_Acc,2024-06-27 11:33:10.922899961,-20.0,-61.0,10.0
1904-01-01 00:08:59.780649975,E4_Acc,2024-06-27 11:33:10.954159975,-20.0,-61.0,10.0
1904-01-01 00:08:59.811899975,E4_Acc,2024-06-27 11:33:10.985409975,-20.0,-61.0,11.0
1904-01-01 00:08:59.843149975,E4_Acc,2024-06-27 11:33:11.016659975,-20.0,-62.0,10.0
1904-01-01 00:08:59.874399975,E4_Acc,2024-06-27 11:33:11.047909975,-19.0,-62.0,10.0
1904-01-01 00:08:59.905649975,E4_Acc,2024-06-27 11:33:11.079159975,-19.0,-61.0,10.0
1904-01-01 00:08:59.936899975,E4_Acc,2024-06-27 11:33:11.110409975,-19.0,-61.0,10.0
1904-01-01 00:08:59.968149975,E4_Acc,2024-06-27 11:33:11.141659975,-19.0,-61.0,9.0
1904-01-01 00:08:59.999409989,E4_Acc,2024-06-27 11:33:11.172919989,-19.0,-61.0,9.0
1904-01-01 00:09:00.030659989,E4_Acc,2024-06-27 11:33:11.204169989,-19.0,-61.0,9.0
1904-01-01 00:09:00.061909989,E4_Acc,2024-06-27 11:33:11.235419989,-19.0,-61.0,9.0
1904-01-01 00:09:00.093159989,E4_Acc,2024-06-27 11:33:11.266669989,-19.0,-61.0,9.0
1904-01-01 00:09:00.124409989,E4_Acc,2024-06-27 11:33:11.297919989,-19.0,-61.0,9.0
1904-01-01 00:09:00.155659989,E4_Acc,2024-06-27 11:33:11.329169989,-20.0,-61.0,10.0
1904-01-01 00:09:00.186920002,E4_Acc,2024-06-27 11:33:11.360430002,-20.0,-62.0,10.0
1904-01-01 00:09:00.218170002,E4_Acc,2024-06-27 11:33:11.391680002,-20.0,-61.0,10.0
1904-01-01 00:09:00.249420002,E4_Acc,2024-06-27 11:33:11.422930002,-20.0,-62.0,10.0
1904-01-01 00:09:00.280670002,E4_Acc,2024-06-27 11:33:11.454180002,-19.0,-62.0,10.0
1904-01-01 00:09:00.311920002,E4_Acc,2024-06-27 11:33:11.485430002,-19.0,-62.0,10.0
1904-01-01 00:09:00.343170002,E4_Acc,2024-06-27 11:33:11.516680002,-19.0,-62.0,10.0
1904-01-01 00:09:00.374420002,E4_Acc,2024-06-27 11:33:11.547930002,-19.0,-61.0,10.0
1904-01-01 00:09:00.405680016,E4_Acc,2024-06-27 11:33:11.579190016,-19.0,-61.0,10.0
1904-01-01 00:09:00.436930016,E4_Acc,2024-06-27 11:33:11.610440016,-19.0,-61.0,10.0
1904-01-01 00:09:00.468180016,E4_Acc,2024-06-27 11:33:11.641690016,-19.0,-61.0,10.0
1904-01-01 00:09:00.499430016,E4_Acc,2024-06-27 11:33:11.672940016,-19.0,-61.0,10.0
1904-01-01 00:09:00.530680016,E4_Acc,2024-06-27 11:33:11.704190016,-19.0,-61.0,10.0
1904-01-01 00:09:00.561930016,E4_Acc,2024-06-27 11:33:11.735440016,-20.0,-61.0,10.0
1904-01-01 00:09:00.593180016,E4_Acc,2024-06-27 11:33:11.766690016,-20.0,-61.0,9.0
1904-01-01 00:09:00.624440029,E4_Acc,2024-06-27 11:33:11.797950029,-19.0,-60.0,10.0
1904-01-01 00:09:00.655690029,E4_Acc,2024-06-27 11:33:11.829200029,-19.0,-61.0,10.0
1904-01-01 00:09:00.686940029,E4_Acc,2024-06-27 11:33:11.860450029,-20.0,-61.0,9.0
1904-01-01 00:09:00.718190029,E4_Acc,2024-06-27 11:33:11.891700029,-19.0,-61.0,10.0
1904-01-01 00:09:00.749440029,E4_Acc,2024-06-27 11:33:11.922950029,-19.0,-61.0,10.0
1904-01-01 00:09:00.780690029,E4_Acc,2024-06-27 11:33:11.954200029,-19.0,-61.0,10.0
1904-01-01 00:09:00.811940029,E4_Acc,2024-06-27 11:33:11.985450029,-18.0,-61.0,10.0
1904-01-01 00:09:00.843200043,E4_Acc,2024-06-27 11:33:12.016710043,-19.0,-61.0,10.0
1904-01-01 00:09:00.874450043,E4_Acc,2024-06-27 11:33:12.047960043,-19.0,-61.0,10.0
1904-01-01 00:09:00.905700043,E4_Acc,2024-06-27 11:33:12.079210043,-19.0,-61.0,10.0
1904-01-01 00:09:00.936950043,E4_Acc,2024-06-27 11:33:12.110460043,-19.0,-61.0,10.0
1904-01-01 00:09:00.968200043,E4_Acc,2024-06-27 11:33:12.141710043,-19.0,-61.0,10.0
1904-01-01 00:09:00.999450043,E4_Acc,2024-06-27 11:33:12.172960043,-19.0,-61.0,10.0
1904-01-01 00:09:01.030700043,E4_Acc,2024-06-27 11:33:12.204210043,-19.0,-61.0,10.0
1904-01-01 00:09:01.061960057,E4_Acc,2024-06-27 11:33:12.235470057,-19.0,-61.0,10.0
1904-01-01 00:09:01.093210057,E4_Acc,2024-06-27 11:33:12.266720057,-19.0,-61.0,10.0
1904-01-01 00:09:01.124460057,E4_Acc,2024-06-27 11:33:12.297970057,-19.0,-61.0,10.0
1904-01-01 00:09:01.155710057,E4_Acc,2024-06-27 11:33:12.329220057,-19.0,-61.0,10.0
1904-01-01 00:09:01.186960057,E4_Acc,2024-06-27 11:33:12.360470057,-20.0,-62.0,10.0
1904-01-01 00:09:01.218210057,E4_Acc,2024-06-27 11:33:12.391720057,-19.0,-61.0,10.0
1904-01-01 00:09:01.249460057,E4_Acc,2024-06-27 11:33:12.422970057,-19.0,-61.0,10.0
1904-01-01 00:09:01.280720070,E4_Acc,2024-06-27 11:33:12.454230070,-19.0,-62.0,10.0
1904-01-01 00:09:01.311970070,E4_Acc,2024-06-27 11:33:12.485480070,-19.0,-62.0,10.0
1904-01-01 00:09:01.343220070,E4_Acc,2024-06-27 11:33:12.516730070,-19.0,-61.0,10.0
1904-01-01 00:09:01.374470070,E4_Acc,2024-06-27 11:33:12.547980070,-19.0,-62.0,9.0
1904-01-01 00:09:01.405720070,E4_Acc,2024-06-27 11:33:12.579230070,-19.0,-61.0,10.0
1904-01-01 00:09:01.436970070,E4_Acc,2024-06-27 11:33:12.610480070,-18.0,-61.0,9.0
1904-01-01 00:09:01.468220070,E4_Acc,2024-06-27 11:33:12.641730070,-19.0,-61.0,9.0
1904-01-01 00:09:01.499480084,E4_Acc,2024-06-27 11:33:12.672990084,-19.0,-62.0,9.0
1904-01-01 00:09:01.530730084,E4_Acc,2024-06-27 11:33:12.704240084,-19.0,-62.0,10.0
1904-01-01 00:09:01.561980084,E4_Acc,2024-06-27 11:33:12.735490084,-19.0,-61.0,10.0
1904-01-01 00:09:01.593230084,E4_Acc,2024-06-27 11:33:12.766740084,-19.0,-61.0,10.0
1904-01-01 00:09:01.624480084,E4_Acc,2024-06-27 11:33:12.797990084,-19.0,-61.0,10.0
1904-01-01 00:09:01.655730084,E4_Acc,2024-06-27 11:33:12.829240084,-19.0,-62.0,10.0
1904-01-01 00:09:01.686980084,E4_Acc,2024-06-27 11:33:12.860490084,-19.0,-62.0,10.0
1904-01-01 00:09:01.718240097,E4_Acc,2024-06-27 11:33:12.891750097,-19.0,-61.0,10.0
1904-01-01 00:09:01.749490097,E4_Acc,2024-06-27 11:33:12.923000097,-19.0,-61.0,10.0
1904-01-01 00:09:01.780740097,E4_Acc,2024-06-27 11:33:12.954250097,-19.0,-61.0,10.0
1904-01-01 00:09:01.811990097,E4_Acc,2024-06-27 11:33:12.985500097,-19.0,-62.0,10.0
1904-01-01 00:09:01.843240096,E4_Acc,2024-06-27 11:33:13.016750096,-19.0,-61.0,10.0
1904-01-01 00:09:01.874490097,E4_Acc,2024-06-27 11:33:13.048000097,-19.0,-61.0,10.0
1904-01-01 00:09:01.905740097,E4_Acc,2024-06-27 11:33:13.079250097,-19.0,-61.0,10.0
1904-01-01 00:09:01.937000111,E4_Acc,2024-06-27 11:33:13.110510111,-19.0,-61.0,10.0
1904-01-01 00:09:01.968250111,E4_Acc,2024-06-27 11:33:13.141760111,-19.0,-61.0,10.0
1904-01-01 00:09:01.999500111,E4_Acc,2024-06-27 11:33:13.173010111,-19.0,-61.0,10.0
1904-01-01 00:09:02.030750111,E4_Acc,2024-06-27 11:33:13.204260111,-19.0,-61.0,10.0
1904-01-01 00:09:02.062000111,E4_Acc,2024-06-27 11:33:13.235510111,-19.0,-61.0,10.0
1904-01-01 00:09:02.093250111,E4_Acc,2024-06-27 11:33:13.266760111,-19.0,-61.0,10.0
1904-01-01 00:09:02.124500111,E4_Acc,2024-06-27 11:33:13.298010111,-19.0,-61.0,10.0
1904-01-01 00:09:02.155759886,E4_Acc,2024-06-27 11:33:13.329269886,-19.0,-61.0,10.0
1904-01-01 00:09:02.187009886,E4_Acc,2024-06-27 11:33:13.360519886,-19.0,-61.0,9.0
1904-01-01 00:09:02.218259886,E4_Acc,2024-06-27 11:33:13.391769886,-18.0,-61.0,9.0
1904-01-01 00:09:02.249509886,E4_Acc,2024-06-27 11:33:13.423019886,-18.0,-61.0,10.0
1904-01-01 00:09:02.280759886,E4_Acc,2024-06-27 11:33:13.454269886,-18.0,-62.0,10.0
1904-01-01 00:09:02.312009886,E4_Acc,2024-06-27 11:33:13.485519886,-18.0,-62.0,9.0
1904-01-01 00:09:02.343259885,E4_Acc,2024-06-27 11:33:13.516769885,-18.0,-62.0,9.0
1904-01-01 00:09:02.374519900,E4_Acc,2024-06-27 11:33:13.548029900,-19.0,-62.0,10.0
1904-01-01 00:09:02.405769900,E4_Acc,2024-06-27 11:33:13.579279900,-19.0,-62.0,10.0
1904-01-01 00:09:02.437019900,E4_Acc,2024-06-27 11:33:13.610529900,-18.0,-62.0,10.0
1904-01-01 00:09:02.468269900,E4_Acc,2024-06-27 11:33:13.641779900,-19.0,-62.0,10.0
1904-01-01 00:09:02.499519900,E4_Acc,2024-06-27 11:33:13.673029900,-19.0,-62.0,10.0
1904-01-01 00:09:02.530769900,E4_Acc,2024-06-27 11:33:13.704279900,-19.0,-62.0,9.0
1904-01-01 00:09:02.562019900,E4_Acc,2024-06-27 11:33:13.735529900,-19.0,-62.0,9.0
1904-01-01 00:09:02.593279913,E4_Acc,2024-06-27 11:33:13.766789913,-18.0,-61.0,9.0
1904-01-01 00:09:02.624529913,E4_Acc,2024-06-27 11:33:13.798039913,-19.0,-62.0,9.0
1904-01-01 00:09:02.655779913,E4_Acc,2024-06-27 11:33:13.829289913,-19.0,-62.0,9.0
1904-01-01 00:09:02.687029913,E4_Acc,2024-06-27 11:33:13.860539913,-18.0,-62.0,9.0
1904-01-01 00:09:02.718279913,E4_Acc,2024-06-27 11:33:13.891789913,-18.0,-61.0,9.0
1904-01-01 00:09:02.749529913,E4_Acc,2024-06-27 11:33:13.923039913,-18.0,-61.0,9.0
1904-01-01 00:09:02.780789927,E4_Acc,2024-06-27 11:33:13.954299927,-18.0,-62.0,9.0
1904-01-01 00:09:02.812039927,E4_Acc,2024-06-27 11:33:13.985549927,-19.0,-61.0,9.0
1904-01-01 00:09:02.843289927,E4_Acc,2024-06-27 11:33:14.016799927,-19.0,-61.0,9.0
1904-01-01 00:09:02.874539927,E4_Acc,2024-06-27 11:33:14.048049927,-19.0,-62.0,10.0
1904-01-01 00:09:02.905789927,E4_Acc,2024-06-27 11:33:14.079299927,-19.0,-62.0,10.0
1904-01-01 00:09:02.937039927,E4_Acc,2024-06-27 11:33:14.110549927,-19.0,-62.0,10.0
1904-01-01 00:09:02.968289927,E4_Acc,2024-06-27 11:33:14.141799927,-18.0,-61.0,10.0
1904-01-01 00:09:02.999549940,E4_Acc,2024-06-27 11:33:14.173059940,-18.0,-61.0,10.0
1904-01-01 00:09:03.030799940,E4_Acc,2024-06-27 11:33:14.204309940,-19.0,-62.0,10.0
1904-01-01 00:09:03.062049940,E4_Acc,2024-06-27 11:33:14.235559940,-19.0,-62.0,10.0
1904-01-01 00:09:03.093299940,E4_Acc,2024-06-27 11:33:14.266809940,-18.0,-61.0,9.0
1904-01-01 00:09:03.124549940,E4_Acc,2024-06-27 11:33:14.298059940,-19.0,-61.0,9.0
1904-01-01 00:09:03.155799940,E4_Acc,2024-06-27 11:33:14.329309940,-19.0,-61.0,10.0
1904-01-01 00:09:03.187049940,E4_Acc,2024-06-27 11:33:14.360559940,-19.0,-61.0,9.0
1904-01-01 00:09:03.218309954,E4_Acc,2024-06-27 11:33:14.391819954,-19.0,-61.0,9.0
1904-01-01 00:09:03.249559954,E4_Acc,2024-06-27 11:33:14.423069954,-18.0,-62.0,10.0
1904-01-01 00:09:03.280809954,E4_Acc,2024-06-27 11:33:14.454319954,-19.0,-61.0,9.0
1904-01-01 00:09:03.312059954,E4_Acc,2024-06-27 11:33:14.485569954,-19.0,-61.0,9.0
1904-01-01 00:09:03.343309954,E4_Acc,2024-06-27 11:33:14.516819954,-19.0,-62.0,9.0
1904-01-01 00:09:03.374559954,E4_Acc,2024-06-27 11:33:14.548069954,-18.0,-61.0,11.0
1904-01-01 00:09:03.405809954,E4_Acc,2024-06-27 11:33:14.579319954,-19.0,-61.0,9.0
1904-01-01 00:09:03.437069967,E4_Acc,2024-06-27 11:33:14.610579967,-19.0,-62.0,9.0
1904-01-01 00:09:03.468319967,E4_Acc,2024-06-27 11:33:14.641829967,-18.0,-62.0,8.0
1904-01-01 00:09:03.499569967,E4_Acc,2024-06-27 11:33:14.673079967,-19.0,-61.0,10.0
1904-01-01 00:09:03.530819967,E4_Acc,2024-06-27 11:33:14.704329967,-17.0,-61.0,12.0
1904-01-01 00:09:03.562069967,E4_Acc,2024-06-27 11:33:14.735579967,-19.0,-61.0,10.0
1904-01-01 00:09:03.593319967,E4_Acc,2024-06-27 11:33:14.766829967,-20.0,-61.0,9.0
1904-01-01 00:09:03.624569967,E4_Acc,2024-06-27 11:33:14.798079967,-18.0,-62.0,10.0
1904-01-01 00:09:03.655829981,E4_Acc,2024-06-27 11:33:14.829339981,-19.0,-61.0,9.0
1904-01-01 00:09:03.687079981,E4_Acc,2024-06-27 11:33:14.860589981,-18.0,-62.0,9.0
1904-01-01 00:09:03.718329981,E4_Acc,2024-06-27 11:33:14.891839981,-21.0,-61.0,10.0
1904-01-01 00:09:03.749579981,E4_Acc,2024-06-27 11:33:14.923089981,-20.0,-60.0,10.0
1904-01-01 00:09:03.780829981,E4_Acc,2024-06-27 11:33:14.954339981,-18.0,-61.0,10.0
1904-01-01 00:09:03.812079981,E4_Acc,2024-06-27 11:33:14.985589981,-18.0,-62.0,11.0
1904-01-01 00:09:03.843329981,E4_Acc,2024-06-27 11:33:15.016839981,-18.0,-62.0,11.0
1904-01-01 00:09:03.874589995,E4_Acc,2024-06-27 11:33:15.048099995,-19.0,-61.0,11.0
1904-01-01 00:09:03.905839995,E4_Acc,2024-06-27 11:33:15.079349995,-19.0,-62.0,11.0
1904-01-01 00:09:03.937089995,E4_Acc,2024-06-27 11:33:15.110599995,-19.0,-61.0,9.0
1904-01-01 00:09:03.968339995,E4_Acc,2024-06-27 11:33:15.141849995,-19.0,-61.0,8.0
1904-01-01 00:09:03.999589995,E4_Acc,2024-06-27 11:33:15.173099995,-18.0,-61.0,9.0
1904-01-01 00:09:04.030839995,E4_Acc,2024-06-27 11:33:15.204349995,-19.0,-61.0,9.0
1904-01-01 00:09:04.062089995,E4_Acc,2024-06-27 11:33:15.235599995,-19.0,-61.0,9.0
1904-01-01 00:09:04.093350007,E4_Acc,2024-06-27 11:33:15.266860007,-19.0,-61.0,9.0
1904-01-01 00:09:04.124600008,E4_Acc,2024-06-27 11:33:15.298110008,-19.0,-62.0,10.0
1904-01-01 00:09:04.155850008,E4_Acc,2024-06-27 11:33:15.329360008,-19.0,-61.0,10.0
1904-01-01 00:09:04.187100008,E4_Acc,2024-06-27 11:33:15.360610008,-19.0,-61.0,10.0
1904-01-01 00:09:04.218350008,E4_Acc,2024-06-27 11:33:15.391860008,-19.0,-61.0,10.0
1904-01-01 00:09:04.249600008,E4_Acc,2024-06-27 11:33:15.423110008,-19.0,-61.0,10.0
1904-01-01 00:09:04.280850008,E4_Acc,2024-06-27 11:33:15.454360008,-19.0,-62.0,9.0
1904-01-01 00:09:04.312110022,E4_Acc,2024-06-27 11:33:15.485620022,-19.0,-62.0,9.0
1904-01-01 00:09:04.343360022,E4_Acc,2024-06-27 11:33:15.516870022,-19.0,-61.0,10.0
1904-01-01 00:09:04.374610022,E4_Acc,2024-06-27 11:33:15.548120022,-18.0,-61.0,9.0
1904-01-01 00:09:04.405860022,E4_Acc,2024-06-27 11:33:15.579370022,-19.0,-62.0,9.0
1904-01-01 00:09:04.437110022,E4_Acc,2024-06-27 11:33:15.610620022,-19.0,-61.0,9.0
1904-01-01 00:09:04.468360022,E4_Acc,2024-06-27 11:33:15.641870022,-19.0,-61.0,9.0
1904-01-01 00:09:04.499610022,E4_Acc,2024-06-27 11:33:15.673120022,-19.0,-61.0,9.0
1904-01-01 00:09:04.530870035,E4_Acc,2024-06-27 11:33:15.704380035,-19.0,-61.0,9.0
1904-01-01 00:09:04.562120035,E4_Acc,2024-06-27 11:33:15.735630035,-19.0,-62.0,9.0
1904-01-01 00:09:04.593370035,E4_Acc,2024-06-27 11:33:15.766880035,-19.0,-62.0,10.0
1904-01-01 00:09:04.624620035,E4_Acc,2024-06-27 11:33:15.798130035,-19.0,-62.0,10.0
1904-01-01 00:09:04.655870035,E4_Acc,2024-06-27 11:33:15.829380035,-19.0,-61.0,10.0
1904-01-01 00:09:04.687120035,E4_Acc,2024-06-27 11:33:15.860630035,-19.0,-61.0,10.0
1904-01-01 00:09:04.718370035,E4_Acc,2024-06-27 11:33:15.891880035,-19.0,-61.0,10.0
1904-01-01 00:09:04.749630049,E4_Acc,2024-06-27 11:33:15.923140049,-19.0,-62.0,10.0
1904-01-01 00:09:04.780880049,E4_Acc,2024-06-27 11:33:15.954390049,-19.0,-61.0,10.0
1904-01-01 00:09:04.812130049,E4_Acc,2024-06-27 11:33:15.985640049,-19.0,-61.0,9.0
1904-01-01 00:09:04.843380049,E4_Acc,2024-06-27 11:33:16.016890049,-19.0,-61.0,9.0
1904-01-01 00:09:04.874630049,E4_Acc,2024-06-27 11:33:16.048140049,-19.0,-61.0,9.0
1904-01-01 00:09:04.905880049,E4_Acc,2024-06-27 11:33:16.079390049,-19.0,-61.0,9.0
1904-01-01 00:09:04.937130049,E4_Acc,2024-06-27 11:33:16.110640049,-19.0,-61.0,9.0
1904-01-01 00:09:04.968390063,E4_Acc,2024-06-27 11:33:16.141900063,-19.0,-61.0,9.0
1904-01-01 00:09:04.999640063,E4_Acc,2024-06-27 11:33:16.173150063,-19.0,-61.0,10.0
1904-01-01 00:09:05.030890063,E4_Acc,2024-06-27 11:33:16.204400063,-19.0,-61.0,10.0
1904-01-01 00:09:05.062140063,E4_Acc,2024-06-27 11:33:16.235650063,-20.0,-61.0,10.0
1904-01-01 00:09:05.093390063,E4_Acc,2024-06-27 11:33:16.266900063,-20.0,-61.0,10.0
1904-01-01 00:09:05.124640063,E4_Acc,2024-06-27 11:33:16.298150063,-20.0,-61.0,10.0
1904-01-01 00:09:05.155900076,E4_Acc,2024-06-27 11:33:16.329410076,-20.0,-61.0,10.0
1904-01-01 00:09:05.187150076,E4_Acc,2024-06-27 11:33:16.360660076,-20.0,-61.0,10.0
1904-01-01 00:09:05.218400076,E4_Acc,2024-06-27 11:33:16.391910076,-20.0,-61.0,10.0
1904-01-01 00:09:05.249650076,E4_Acc,2024-06-27 11:33:16.423160076,-20.0,-61.0,10.0
1904-01-01 00:09:05.280900076,E4_Acc,2024-06-27 11:33:16.454410076,-20.0,-61.0,10.0
1904-01-01 00:09:05.312150076,E4_Acc,2024-06-27 11:33:16.485660076,-19.0,-61.0,10.0
1904-01-01 00:09:05.343400076,E4_Acc,2024-06-27 11:33:16.516910076,-19.0,-61.0,10.0
1904-01-01 00:09:05.374660090,E4_Acc,2024-06-27 11:33:16.548170090,-19.0,-61.0,9.0
1904-01-01 00:09:05.405910090,E4_Acc,2024-06-27 11:33:16.579420090,-19.0,-61.0,9.0
1904-01-01 00:09:05.437160090,E4_Acc,2024-06-27 11:33:16.610670090,-18.0,-61.0,10.0
1904-01-01 00:09:05.468410090,E4_Acc,2024-06-27 11:33:16.641920090,-19.0,-61.0,10.0
1904-01-01 00:09:05.499660090,E4_Acc,2024-06-27 11:33:16.673170090,-19.0,-61.0,10.0
1904-01-01 00:09:05.530910090,E4_Acc,2024-06-27 11:33:16.704420090,-19.0,-61.0,10.0
1904-01-01 00:09:05.562160090,E4_Acc,2024-06-27 11:33:16.735670090,-19.0,-62.0,10.0
1904-01-01 00:09:05.593420103,E4_Acc,2024-06-27 11:33:16.766930103,-19.0,-62.0,10.0
1904-01-01 00:09:05.624670103,E4_Acc,2024-06-27 11:33:16.798180103,-19.0,-61.0,10.0
1904-01-01 00:09:05.655920103,E4_Acc,2024-06-27 11:33:16.829430103,-19.0,-61.0,10.0
1904-01-01 00:09:05.687170103,E4_Acc,2024-06-27 11:33:16.860680103,-19.0,-61.0,10.0
1904-01-01 00:09:05.718420103,E4_Acc,2024-06-27 11:33:16.891930103,-19.0,-62.0,10.0
1904-01-01 00:09:05.749670103,E4_Acc,2024-06-27 11:33:16.923180103,-19.0,-62.0,10.0
1904-01-01 00:09:05.780920103,E4_Acc,2024-06-27 11:33:16.954430103,-19.0,-61.0,9.0
1904-01-01 00:09:05.812180117,E4_Acc,2024-06-27 11:33:16.985690117,-18.0,-61.0,10.0
1904-01-01 00:09:05.843430117,E4_Acc,2024-06-27 11:33:17.016940117,-19.0,-61.0,10.0
1904-01-01 00:09:05.874680117,E4_Acc,2024-06-27 11:33:17.048190117,-19.0,-62.0,10.0
1904-01-01 00:09:05.905930117,E4_Acc,2024-06-27 11:33:17.079440117,-19.0,-62.0,10.0
1904-01-01 00:09:05.937180117,E4_Acc,2024-06-27 11:33:17.110690117,-19.0,-61.0,10.0
1904-01-01 00:09:05.968430117,E4_Acc,2024-06-27 11:33:17.141940117,-19.0,-61.0,10.0
1904-01-01 00:09:05.999680117,E4_Acc,2024-06-27 11:33:17.173190117,-19.0,-61.0,10.0
1904-01-01 00:09:06.030939892,E4_Acc,2024-06-27 11:33:17.204449892,-19.0,-61.0,10.0
1904-01-01 00:09:06.062189892,E4_Acc,2024-06-27 11:33:17.235699892,-19.0,-61.0,9.0
1904-01-01 00:09:06.093439892,E4_Acc,2024-06-27 11:33:17.266949892,-19.0,-61.0,9.0
1904-01-01 00:09:06.124689892,E4_Acc,2024-06-27 11:33:17.298199892,-19.0,-61.0,9.0
1904-01-01 00:09:06.155939892,E4_Acc,2024-06-27 11:33:17.329449892,-19.0,-62.0,9.0
1904-01-01 00:09:06.187189892,E4_Acc,2024-06-27 11:33:17.360699892,-19.0,-62.0,9.0
1904-01-01 00:09:06.218439892,E4_Acc,2024-06-27 11:33:17.391949892,-18.0,-61.0,9.0
1904-01-01 00:09:06.249699906,E4_Acc,2024-06-27 11:33:17.423209906,-18.0,-62.0,9.0
1904-01-01 00:09:06.280949906,E4_Acc,2024-06-27 11:33:17.454459906,-19.0,-61.0,10.0
1904-01-01 00:09:06.312199906,E4_Acc,2024-06-27 11:33:17.485709906,-18.0,-61.0,10.0
1904-01-01 00:09:06.343449905,E4_Acc,2024-06-27 11:33:17.516959905,-19.0,-62.0,10.0
1904-01-01 00:09:06.374699906,E4_Acc,2024-06-27 11:33:17.548209906,-19.0,-62.0,10.0
1904-01-01 00:09:06.405949906,E4_Acc,2024-06-27 11:33:17.579459906,-19.0,-62.0,10.0
1904-01-01 00:09:06.437199906,E4_Acc,2024-06-27 11:33:17.610709906,-18.0,-61.0,10.0
1904-01-01 00:09:06.468459919,E4_Acc,2024-06-27 11:33:17.641969919,-18.0,-61.0,9.0
1904-01-01 00:09:06.499709919,E4_Acc,2024-06-27 11:33:17.673219919,-18.0,-62.0,9.0
1904-01-01 00:09:06.530959919,E4_Acc,2024-06-27 11:33:17.704469919,-19.0,-62.0,9.0
1904-01-01 00:09:06.562209919,E4_Acc,2024-06-27 11:33:17.735719919,-18.0,-62.0,10.0
1904-01-01 00:09:06.593459919,E4_Acc,2024-06-27 11:33:17.766969919,-18.0,-61.0,10.0
1904-01-01 00:09:06.624709919,E4_Acc,2024-06-27 11:33:17.798219919,-18.0,-61.0,9.0
1904-01-01 00:09:06.655959919,E4_Acc,2024-06-27 11:33:17.829469919,-18.0,-62.0,10.0
1904-01-01 00:09:06.687219933,E4_Acc,2024-06-27 11:33:17.860729933,-18.0,-62.0,10.0
1904-01-01 00:09:06.718469933,E4_Acc,2024-06-27 11:33:17.891979933,-19.0,-61.0,9.0
1904-01-01 00:09:06.749719933,E4_Acc,2024-06-27 11:33:17.923229933,-18.0,-61.0,9.0
1904-01-01 00:09:06.780969933,E4_Acc,2024-06-27 11:33:17.954479933,-18.0,-61.0,9.0
1904-01-01 00:09:06.812219933,E4_Acc,2024-06-27 11:33:17.985729933,-19.0,-62.0,9.0
1904-01-01 00:09:06.843469933,E4_Acc,2024-06-27 11:33:18.016979933,-19.0,-62.0,9.0
1904-01-01 00:09:06.874719933,E4_Acc,2024-06-27 11:33:18.048229933,-19.0,-61.0,9.0
1904-01-01 00:09:06.905979946,E4_Acc,2024-06-27 11:33:18.079489946,-18.0,-61.0,9.0
1904-01-01 00:09:06.937229946,E4_Acc,2024-06-27 11:33:18.110739946,-18.0,-62.0,9.0
1904-01-01 00:09:06.968479946,E4_Acc,2024-06-27 11:33:18.141989946,-19.0,-61.0,9.0
1904-01-01 00:09:06.999729946,E4_Acc,2024-06-27 11:33:18.173239946,-19.0,-61.0,9.0
1904-01-01 00:09:07.030979946,E4_Acc,2024-06-27 11:33:18.204489946,-18.0,-62.0,9.0
1904-01-01 00:09:07.062229946,E4_Acc,2024-06-27 11:33:18.235739946,-18.0,-62.0,9.0
1904-01-01 00:09:07.093479945,E4_Acc,2024-06-27 11:33:18.266989945,-18.0,-62.0,10.0
1904-01-01 00:09:07.124739960,E4_Acc,2024-06-27 11:33:18.298249960,-18.0,-62.0,9.0
1904-01-01 00:09:07.155989960,E4_Acc,2024-06-27 11:33:18.329499960,-18.0,-62.0,9.0
1904-01-01 00:09:07.187239960,E4_Acc,2024-06-27 11:33:18.360749960,-18.0,-61.0,9.0
1904-01-01 00:09:07.218489960,E4_Acc,2024-06-27 11:33:18.391999960,-18.0,-62.0,9.0
1904-01-01 00:09:07.249739960,E4_Acc,2024-06-27 11:33:18.423249960,-18.0,-61.0,9.0
1904-01-01 00:09:07.280989960,E4_Acc,2024-06-27 11:33:18.454499960,-18.0,-62.0,9.0
1904-01-01 00:09:07.312239960,E4_Acc,2024-06-27 11:33:18.485749960,-18.0,-62.0,9.0
1904-01-01 00:09:07.343499974,E4_Acc,2024-06-27 11:33:18.517009974,-18.0,-62.0,9.0
1904-01-01 00:09:07.374749974,E4_Acc,2024-06-27 11:33:18.548259974,-18.0,-62.0,9.0
1904-01-01 00:09:07.405999974,E4_Acc,2024-06-27 11:33:18.579509974,-18.0,-61.0,9.0
1904-01-01 00:09:07.437249974,E4_Acc,2024-06-27 11:33:18.610759974,-18.0,-61.0,9.0
1904-01-01 00:09:07.468499974,E4_Acc,2024-06-27 11:33:18.642009974,-18.0,-62.0,9.0
1904-01-01 00:09:07.499749974,E4_Acc,2024-06-27 11:33:18.673259974,-18.0,-62.0,9.0
1904-01-01 00:09:07.530999974,E4_Acc,2024-06-27 11:33:18.704509974,-18.0,-62.0,9.0
1904-01-01 00:09:07.562259987,E4_Acc,2024-06-27 11:33:18.735769987,-18.0,-61.0,9.0
1904-01-01 00:09:07.593509987,E4_Acc,2024-06-27 11:33:18.767019987,-18.0,-61.0,9.0
1904-01-01 00:09:07.624759987,E4_Acc,2024-06-27 11:33:18.798269987,-18.0,-62.0,9.0
1904-01-01 00:09:07.656009987,E4_Acc,2024-06-27 11:33:18.829519987,-18.0,-62.0,9.0
1904-01-01 00:09:07.687259987,E4_Acc,2024-06-27 11:33:18.860769987,-18.0,-62.0,9.0
1904-01-01 00:09:07.718509987,E4_Acc,2024-06-27 11:33:18.892019987,-18.0,-61.0,9.0
1904-01-01 00:09:07.749759987,E4_Acc,2024-06-27 11:33:18.923269987,-18.0,-61.0,9.0
1904-01-01 00:09:07.781020001,E4_Acc,2024-06-27 11:33:18.954530001,-18.0,-62.0,9.0
1904-01-01 00:09:07.812270001,E4_Acc,2024-06-27 11:33:18.985780001,-18.0,-62.0,9.0
1904-01-01 00:09:07.843520001,E4_Acc,2024-06-27 11:33:19.017030001,-18.0,-62.0,9.0
1904-01-01 00:09:07.874770001,E4_Acc,2024-06-27 11:33:19.048280001,-18.0,-62.0,9.0
1904-01-01 00:09:07.906020001,E4_Acc,2024-06-27 11:33:19.079530001,-18.0,-62.0,9.0
1904-01-01 00:09:07.937270001,E4_Acc,2024-06-27 11:33:19.110780001,-18.0,-62.0,9.0
1904-01-01 00:09:07.968530014,E4_Acc,2024-06-27 11:33:19.142040014,-18.0,-61.0,9.0
1904-01-01 00:09:07.999780014,E4_Acc,2024-06-27 11:33:19.173290014,-18.0,-62.0,9.0
1904-01-01 00:09:08.031030014,E4_Acc,2024-06-27 11:33:19.204540014,-18.0,-62.0,9.0
1904-01-01 00:09:08.062280014,E4_Acc,2024-06-27 11:33:19.235790014,-18.0,-62.0,9.0
1904-01-01 00:09:08.093530014,E4_Acc,2024-06-27 11:33:19.267040014,-18.0,-62.0,9.0
1904-01-01 00:09:08.124780014,E4_Acc,2024-06-27 11:33:19.298290014,-18.0,-62.0,9.0
1904-01-01 00:09:08.156030014,E4_Acc,2024-06-27 11:33:19.329540014,-18.0,-62.0,9.0
1904-01-01 00:09:08.187290028,E4_Acc,2024-06-27 11:33:19.360800028,-18.0,-62.0,9.0
1904-01-01 00:09:08.218540028,E4_Acc,2024-06-27 11:33:19.392050028,-18.0,-62.0,9.0
1904-01-01 00:09:08.249790028,E4_Acc,2024-06-27 11:33:19.423300028,-18.0,-62.0,9.0
1904-01-01 00:09:08.281040028,E4_Acc,2024-06-27 11:33:19.454550028,-18.0,-62.0,9.0
1904-01-01 00:09:08.312290028,E4_Acc,2024-06-27 11:33:19.485800028,-18.0,-62.0,9.0
1904-01-01 00:09:08.343540028,E4_Acc,2024-06-27 11:33:19.517050028,-18.0,-62.0,9.0
1904-01-01 00:09:08.374790028,E4_Acc,2024-06-27 11:33:19.548300028,-18.0,-61.0,9.0
1904-01-01 00:09:08.406050041,E4_Acc,2024-06-27 11:33:19.579560041,-18.0,-61.0,9.0
1904-01-01 00:09:08.437300041,E4_Acc,2024-06-27 11:33:19.610810041,-18.0,-61.0,9.0
1904-01-01 00:09:08.468550041,E4_Acc,2024-06-27 11:33:19.642060041,-18.0,-62.0,9.0
1904-01-01 00:09:08.499800041,E4_Acc,2024-06-27 11:33:19.673310041,-18.0,-62.0,9.0
1904-01-01 00:09:08.531050041,E4_Acc,2024-06-27 11:33:19.704560041,-18.0,-62.0,9.0
1904-01-01 00:09:08.562300041,E4_Acc,2024-06-27 11:33:19.735810041,-18.0,-62.0,10.0
1904-01-01 00:09:08.593550041,E4_Acc,2024-06-27 11:33:19.767060041,-18.0,-62.0,10.0
1904-01-01 00:09:08.624810055,E4_Acc,2024-06-27 11:33:19.798320055,-18.0,-62.0,10.0
1904-01-01 00:09:08.656060055,E4_Acc,2024-06-27 11:33:19.829570055,-18.0,-62.0,10.0
1904-01-01 00:09:08.687310055,E4_Acc,2024-06-27 11:33:19.860820055,-18.0,-62.0,10.0
1904-01-01 00:09:08.718560055,E4_Acc,2024-06-27 11:33:19.892070055,-18.0,-62.0,9.0
1904-01-01 00:09:08.749810055,E4_Acc,2024-06-27 11:33:19.923320055,-18.0,-62.0,9.0
1904-01-01 00:09:08.781060055,E4_Acc,2024-06-27 11:33:19.954570055,-17.0,-62.0,9.0
1904-01-01 00:09:08.812310055,E4_Acc,2024-06-27 11:33:19.985820055,-18.0,-62.0,9.0
1904-01-01 00:09:08.843570069,E4_Acc,2024-06-27 11:33:20.017080069,-18.0,-62.0,9.0
1904-01-01 00:09:08.874820069,E4_Acc,2024-06-27 11:33:20.048330069,-18.0,-61.0,9.0
1904-01-01 00:09:08.906070069,E4_Acc,2024-06-27 11:33:20.079580069,-18.0,-61.0,9.0
1904-01-01 00:09:08.937320069,E4_Acc,2024-06-27 11:33:20.110830069,-18.0,-61.0,9.0
1904-01-01 00:09:08.968570069,E4_Acc,2024-06-27 11:33:20.142080069,-18.0,-62.0,9.0
1904-01-01 00:09:08.999820069,E4_Acc,2024-06-27 11:33:20.173330069,-18.0,-61.0,10.0
1904-01-01 00:09:09.031070069,E4_Acc,2024-06-27 11:33:20.204580069,-19.0,-61.0,10.0
1904-01-01 00:09:09.062330082,E4_Acc,2024-06-27 11:33:20.235840082,-19.0,-61.0,9.0
1904-01-01 00:09:09.093580082,E4_Acc,2024-06-27 11:33:20.267090082,-18.0,-62.0,9.0
1904-01-01 00:09:09.124830082,E4_Acc,2024-06-27 11:33:20.298340082,-18.0,-61.0,9.0
1904-01-01 00:09:09.156080082,E4_Acc,2024-06-27 11:33:20.329590082,-18.0,-62.0,9.0
1904-01-01 00:09:09.187330082,E4_Acc,2024-06-27 11:33:20.360840082,-18.0,-61.0,9.0
1904-01-01 00:09:09.218580082,E4_Acc,2024-06-27 11:33:20.392090082,-18.0,-61.0,9.0
1904-01-01 00:09:09.249830082,E4_Acc,2024-06-27 11:33:20.423340082,-18.0,-61.0,9.0
1904-01-01 00:09:09.281090096,E4_Acc,2024-06-27 11:33:20.454600096,-18.0,-62.0,9.0
1904-01-01 00:09:09.312340096,E4_Acc,2024-06-27 11:33:20.485850096,-18.0,-62.0,9.0
1904-01-01 00:09:09.343590095,E4_Acc,2024-06-27 11:33:20.517100095,-19.0,-61.0,9.0
1904-01-01 00:09:09.374840096,E4_Acc,2024-06-27 11:33:20.548350096,-18.0,-62.0,9.0
1904-01-01 00:09:09.406090096,E4_Acc,2024-06-27 11:33:20.579600096,-18.0,-61.0,9.0
1904-01-01 00:09:09.437340096,E4_Acc,2024-06-27 11:33:20.610850096,-18.0,-62.0,9.0
1904-01-01 00:09:09.468590096,E4_Acc,2024-06-27 11:33:20.642100096,-19.0,-62.0,9.0
1904-01-01 00:09:09.499850109,E4_Acc,2024-06-27 11:33:20.673360109,-18.0,-61.0,10.0
1904-01-01 00:09:09.531100109,E4_Acc,2024-06-27 11:33:20.704610109,-18.0,-61.0,10.0
1904-01-01 00:09:09.562350109,E4_Acc,2024-06-27 11:33:20.735860109,-18.0,-62.0,9.0
1904-01-01 00:09:09.593600109,E4_Acc,2024-06-27 11:33:20.767110109,-18.0,-62.0,9.0
1904-01-01 00:09:09.624850109,E4_Acc,2024-06-27 11:33:20.798360109,-18.0,-62.0,9.0
1904-01-01 00:09:09.656100109,E4_Acc,2024-06-27 11:33:20.829610109,-18.0,-61.0,9.0
1904-01-01 00:09:09.687350109,E4_Acc,2024-06-27 11:33:20.860860109,-18.0,-62.0,9.0
1904-01-01 00:09:09.718609884,E4_Acc,2024-06-27 11:33:20.892119884,-18.0,-62.0,9.0
1904-01-01 00:09:09.749859884,E4_Acc,2024-06-27 11:33:20.923369884,-18.0,-62.0,9.0
1904-01-01 00:09:09.781109884,E4_Acc,2024-06-27 11:33:20.954619884,-18.0,-62.0,9.0
1904-01-01 00:09:09.812359884,E4_Acc,2024-06-27 11:33:20.985869884,-18.0,-62.0,9.0
1904-01-01 00:09:09.843609884,E4_Acc,2024-06-27 11:33:21.017119884,-18.0,-62.0,9.0
1904-01-01 00:09:09.874859884,E4_Acc,2024-06-27 11:33:21.048369884,-18.0,-62.0,9.0
1904-01-01 00:09:09.906109884,E4_Acc,2024-06-27 11:33:21.079619884,-18.0,-62.0,9.0
1904-01-01 00:09:09.937369898,E4_Acc,2024-06-27 11:33:21.110879898,-18.0,-62.0,9.0
1904-01-01 00:09:09.968619898,E4_Acc,2024-06-27 11:33:21.142129898,-18.0,-62.0,9.0
1904-01-01 00:09:09.999869898,E4_Acc,2024-06-27 11:33:21.173379898,-18.0,-62.0,9.0
1904-01-01 00:09:10.031119898,E4_Acc,2024-06-27 11:33:21.204629898,-18.0,-62.0,9.0
1904-01-01 00:09:10.062369898,E4_Acc,2024-06-27 11:33:21.235879898,-18.0,-61.0,9.0
1904-01-01 00:09:10.093619897,E4_Acc,2024-06-27 11:33:21.267129897,-18.0,-62.0,9.0
1904-01-01 00:09:10.124879912,E4_Acc,2024-06-27 11:33:21.298389912,-18.0,-62.0,9.0
1904-01-01 00:09:10.156129912,E4_Acc,2024-06-27 11:33:21.329639912,-18.0,-62.0,9.0
1904-01-01 00:09:10.187379912,E4_Acc,2024-06-27 11:33:21.360889912,-18.0,-62.0,9.0
1904-01-01 00:09:10.218629912,E4_Acc,2024-06-27 11:33:21.392139912,-18.0,-62.0,9.0
1904-01-01 00:09:10.249879912,E4_Acc,2024-06-27 11:33:21.423389912,-18.0,-62.0,9.0
1904-01-01 00:09:10.281129912,E4_Acc,2024-06-27 11:33:21.454639912,-18.0,-62.0,9.0
1904-01-01 00:09:10.312379912,E4_Acc,2024-06-27 11:33:21.485889912,-18.0,-62.0,9.0
1904-01-01 00:09:10.343639925,E4_Acc,2024-06-27 11:33:21.517149925,-17.0,-62.0,9.0
1904-01-01 00:09:10.374889925,E4_Acc,2024-06-27 11:33:21.548399925,-18.0,-62.0,9.0
1904-01-01 00:09:10.406139925,E4_Acc,2024-06-27 11:33:21.579649925,-18.0,-62.0,9.0
1904-01-01 00:09:10.437389925,E4_Acc,2024-06-27 11:33:21.610899925,-17.0,-62.0,9.0
1904-01-01 00:09:10.468639925,E4_Acc,2024-06-27 11:33:21.642149925,-18.0,-62.0,10.0
1904-01-01 00:09:10.499889925,E4_Acc,2024-06-27 11:33:21.673399925,-18.0,-62.0,9.0
1904-01-01 00:09:10.531139925,E4_Acc,2024-06-27 11:33:21.704649925,-18.0,-62.0,10.0
1904-01-01 00:09:10.562399939,E4_Acc,2024-06-27 11:33:21.735909939,-18.0,-62.0,9.0
1904-01-01 00:09:10.593649939,E4_Acc,2024-06-27 11:33:21.767159939,-18.0,-61.0,9.0
1904-01-01 00:09:10.624899939,E4_Acc,2024-06-27 11:33:21.798409939,-18.0,-61.0,9.0
1904-01-01 00:09:10.656149939,E4_Acc,2024-06-27 11:33:21.829659939,-18.0,-61.0,9.0
1904-01-01 00:09:10.687399939,E4_Acc,2024-06-27 11:33:21.860909939,-18.0,-62.0,9.0
1904-01-01 00:09:10.718649939,E4_Acc,2024-06-27 11:33:21.892159939,-18.0,-62.0,9.0
1904-01-01 00:09:10.749899939,E4_Acc,2024-06-27 11:33:21.923409939,-18.0,-61.0,9.0
1904-01-01 00:09:10.781159952,E4_Acc,2024-06-27 11:33:21.954669952,-18.0,-61.0,9.0
1904-01-01 00:09:10.812409952,E4_Acc,2024-06-27 11:33:21.985919952,-18.0,-61.0,9.0
1904-01-01 00:09:10.843659952,E4_Acc,2024-06-27 11:33:22.017169952,-18.0,-62.0,9.0
1904-01-01 00:09:10.874909952,E4_Acc,2024-06-27 11:33:22.048419952,-18.0,-62.0,9.0
1904-01-01 00:09:10.906159952,E4_Acc,2024-06-27 11:33:22.079669952,-18.0,-62.0,9.0
1904-01-01 00:09:10.937409952,E4_Acc,2024-06-27 11:33:22.110919952,-18.0,-62.0,9.0
1904-01-01 00:09:10.968659952,E4_Acc,2024-06-27 11:33:22.142169952,-18.0,-62.0,9.0
1904-01-01 00:09:10.999919966,E4_Acc,2024-06-27 11:33:22.173429966,-18.0,-62.0,9.0
1904-01-01 00:09:11.031169966,E4_Acc,2024-06-27 11:33:22.204679966,-18.0,-62.0,9.0
1904-01-01 00:09:11.062419966,E4_Acc,2024-06-27 11:33:22.235929966,-18.0,-62.0,9.0
1904-01-01 00:09:11.093669966,E4_Acc,2024-06-27 11:33:22.267179966,-18.0,-62.0,10.0
1904-01-01 00:09:11.124919966,E4_Acc,2024-06-27 11:33:22.298429966,-18.0,-62.0,10.0
1904-01-01 00:09:11.156169966,E4_Acc,2024-06-27 11:33:22.329679966,-18.0,-62.0,9.0
1904-01-01 00:09:11.187419966,E4_Acc,2024-06-27 11:33:22.360929966,-18.0,-62.0,9.0
1904-01-01 00:09:11.218679980,E4_Acc,2024-06-27 11:33:22.392189980,-18.0,-62.0,9.0
1904-01-01 00:09:11.249929980,E4_Acc,2024-06-27 11:33:22.423439980,-18.0,-62.0,9.0
1904-01-01 00:09:11.281179980,E4_Acc,2024-06-27 11:33:22.454689980,-18.0,-61.0,9.0
1904-01-01 00:09:11.312429980,E4_Acc,2024-06-27 11:33:22.485939980,-18.0,-62.0,9.0
1904-01-01 00:09:11.343679980,E4_Acc,2024-06-27 11:33:22.517189980,-18.0,-62.0,9.0
1904-01-01 00:09:11.374929980,E4_Acc,2024-06-27 11:33:22.548439980,-18.0,-62.0,9.0
1904-01-01 00:09:11.406179980,E4_Acc,2024-06-27 11:33:22.579689980,-18.0,-62.0,10.0
1904-01-01 00:09:11.437439993,E4_Acc,2024-06-27 11:33:22.610949993,-18.0,-61.0,10.0
1904-01-01 00:09:11.468689993,E4_Acc,2024-06-27 11:33:22.642199993,-18.0,-62.0,9.0
1904-01-01 00:09:11.499939993,E4_Acc,2024-06-27 11:33:22.673449993,-18.0,-62.0,9.0
1904-01-01 00:09:11.531189993,E4_Acc,2024-06-27 11:33:22.704699993,-18.0,-62.0,9.0
1904-01-01 00:09:11.562439993,E4_Acc,2024-06-27 11:33:22.735949993,-18.0,-61.0,9.0
1904-01-01 00:09:11.593689993,E4_Acc,2024-06-27 11:33:22.767199993,-18.0,-61.0,9.0
1904-01-01 00:09:11.624939993,E4_Acc,2024-06-27 11:33:22.798449993,-18.0,-61.0,9.0
1904-01-01 00:09:11.656200007,E4_Acc,2024-06-27 11:33:22.829710007,-19.0,-62.0,9.0
1904-01-01 00:09:11.687450007,E4_Acc,2024-06-27 11:33:22.860960007,-18.0,-61.0,9.0
1904-01-01 00:09:11.718700007,E4_Acc,2024-06-27 11:33:22.892210007,-18.0,-61.0,9.0
1904-01-01 00:09:11.749950007,E4_Acc,2024-06-27 11:33:22.923460007,-18.0,-61.0,9.0
1904-01-01 00:09:11.781200007,E4_Acc,2024-06-27 11:33:22.954710007,-18.0,-62.0,9.0
1904-01-01 00:09:11.812450007,E4_Acc,2024-06-27 11:33:22.985960007,-18.0,-62.0,9.0
1904-01-01 00:09:11.843700007,E4_Acc,2024-06-27 11:33:23.017210007,-18.0,-62.0,9.0
1904-01-01 00:09:11.874960020,E4_Acc,2024-06-27 11:33:23.048470020,-18.0,-62.0,9.0
1904-01-01 00:09:11.906210020,E4_Acc,2024-06-27 11:33:23.079720020,-18.0,-62.0,9.0
1904-01-01 00:09:11.937460020,E4_Acc,2024-06-27 11:33:23.110970020,-18.0,-62.0,10.0
1904-01-01 00:09:11.968710020,E4_Acc,2024-06-27 11:33:23.142220020,-18.0,-62.0,10.0
1904-01-01 00:09:11.999960020,E4_Acc,2024-06-27 11:33:23.173470020,-18.0,-62.0,9.0
1904-01-01 00:09:12.031210020,E4_Acc,2024-06-27 11:33:23.204720020,-19.0,-61.0,10.0
1904-01-01 00:09:12.062460020,E4_Acc,2024-06-27 11:33:23.235970020,-19.0,-61.0,10.0
1904-01-01 00:09:12.093720034,E4_Acc,2024-06-27 11:33:23.267230034,-19.0,-62.0,9.0
1904-01-01 00:09:12.124970034,E4_Acc,2024-06-27 11:33:23.298480034,-19.0,-62.0,9.0
1904-01-01 00:09:12.156220034,E4_Acc,2024-06-27 11:33:23.329730034,-19.0,-62.0,9.0
1904-01-01 00:09:12.187470034,E4_Acc,2024-06-27 11:33:23.360980034,-18.0,-62.0,9.0
1904-01-01 00:09:12.218720034,E4_Acc,2024-06-27 11:33:23.392230034,-18.0,-61.0,9.0
1904-01-01 00:09:12.249970034,E4_Acc,2024-06-27 11:33:23.423480034,-18.0,-62.0,9.0
1904-01-01 00:09:12.281220034,E4_Acc,2024-06-27 11:33:23.454730034,-18.0,-62.0,9.0
1904-01-01 00:09:12.312480047,E4_Acc,2024-06-27 11:33:23.485990047,-18.0,-62.0,9.0
1904-01-01 00:09:12.343730047,E4_Acc,2024-06-27 11:33:23.517240047,-18.0,-61.0,9.0
1904-01-01 00:09:12.374980047,E4_Acc,2024-06-27 11:33:23.548490047,-18.0,-61.0,9.0
1904-01-01 00:09:12.406230047,E4_Acc,2024-06-27 11:33:23.579740047,-18.0,-62.0,9.0
1904-01-01 00:09:12.437480047,E4_Acc,2024-06-27 11:33:23.610990047,-19.0,-62.0,9.0
1904-01-01 00:09:12.468730047,E4_Acc,2024-06-27 11:33:23.642240047,-19.0,-61.0,9.0
1904-01-01 00:09:12.499990061,E4_Acc,2024-06-27 11:33:23.673500061,-19.0,-61.0,9.0
1904-01-01 00:09:12.531240061,E4_Acc,2024-06-27 11:33:23.704750061,-19.0,-62.0,9.0
1904-01-01 00:09:12.562490061,E4_Acc,2024-06-27 11:33:23.736000061,-19.0,-61.0,9.0
1904-01-01 00:09:12.593740061,E4_Acc,2024-06-27 11:33:23.767250061,-19.0,-62.0,9.0
1904-01-01 00:09:12.624990061,E4_Acc,2024-06-27 11:33:23.798500061,-19.0,-61.0,9.0
1904-01-01 00:09:12.656240061,E4_Acc,2024-06-27 11:33:23.829750061,-18.0,-62.0,9.0
1904-01-01 00:09:12.687490061,E4_Acc,2024-06-27 11:33:23.861000061,-19.0,-62.0,9.0
1904-01-01 00:09:12.718750075,E4_Acc,2024-06-27 11:33:23.892260075,-18.0,-62.0,9.0
1904-01-01 00:09:12.750000075,E4_Acc,2024-06-27 11:33:23.923510075,-18.0,-62.0,9.0
1904-01-01 00:09:12.781250075,E4_Acc,2024-06-27 11:33:23.954760075,-18.0,-61.0,9.0
1904-01-01 00:09:12.812500075,E4_Acc,2024-06-27 11:33:23.986010075,-18.0,-61.0,9.0
1904-01-01 00:09:12.843750075,E4_Acc,2024-06-27 11:33:24.017260075,-18.0,-62.0,9.0
1904-01-01 00:09:12.875000075,E4_Acc,2024-06-27 11:33:24.048510075,-18.0,-62.0,9.0
1904-01-01 00:09:12.906250075,E4_Acc,2024-06-27 11:33:24.079760075,-18.0,-62.0,9.0
1904-01-01 00:09:12.937510088,E4_Acc,2024-06-27 11:33:24.111020088,-18.0,-62.0,9.0
1904-01-01 00:09:12.968760088,E4_Acc,2024-06-27 11:33:24.142270088,-18.0,-62.0,9.0
1904-01-01 00:09:13.000010088,E4_Acc,2024-06-27 11:33:24.173520088,-18.0,-61.0,9.0
1904-01-01 00:09:13.031260088,E4_Acc,2024-06-27 11:33:24.204770088,-18.0,-62.0,9.0
1904-01-01 00:09:13.062510088,E4_Acc,2024-06-27 11:33:24.236020088,-18.0,-62.0,9.0
1904-01-01 00:09:13.093760088,E4_Acc,2024-06-27 11:33:24.267270088,-18.0,-62.0,9.0
1904-01-01 00:09:13.125010088,E4_Acc,2024-06-27 11:33:24.298520088,-18.0,-61.0,9.0
1904-01-01 00:09:13.156270102,E4_Acc,2024-06-27 11:33:24.329780102,-18.0,-61.0,9.0
1904-01-01 00:09:13.187520102,E4_Acc,2024-06-27 11:33:24.361030102,-18.0,-62.0,9.0
1904-01-01 00:09:13.218770102,E4_Acc,2024-06-27 11:33:24.392280102,-19.0,-62.0,9.0
1904-01-01 00:09:13.250020102,E4_Acc,2024-06-27 11:33:24.423530102,-18.0,-62.0,9.0
1904-01-01 00:09:13.281270102,E4_Acc,2024-06-27 11:33:24.454780102,-19.0,-61.0,9.0
1904-01-01 00:09:13.312520102,E4_Acc,2024-06-27 11:33:24.486030102,-19.0,-61.0,9.0
1904-01-01 00:09:13.343770101,E4_Acc,2024-06-27 11:33:24.517280101,-18.0,-62.0,9.0
1904-01-01 00:09:13.375030115,E4_Acc,2024-06-27 11:33:24.548540115,-18.0,-62.0,9.0
1904-01-01 00:09:13.406280115,E4_Acc,2024-06-27 11:33:24.579790115,-18.0,-62.0,9.0
1904-01-01 00:09:13.437530115,E4_Acc,2024-06-27 11:33:24.611040115,-18.0,-62.0,8.0
1904-01-01 00:09:13.468780115,E4_Acc,2024-06-27 11:33:24.642290115,-18.0,-62.0,9.0
1904-01-01 00:09:13.500030115,E4_Acc,2024-06-27 11:33:24.673540115,-18.0,-62.0,9.0
1904-01-01 00:09:13.531280115,E4_Acc,2024-06-27 11:33:24.704790115,-18.0,-62.0,9.0
1904-01-01 00:09:13.562530115,E4_Acc,2024-06-27 11:33:24.736040115,-18.0,-62.0,9.0
1904-01-01 00:09:13.593789891,E4_Acc,2024-06-27 11:33:24.767299891,-18.0,-62.0,9.0
1904-01-01 00:09:13.625039891,E4_Acc,2024-06-27 11:33:24.798549891,-18.0,-62.0,9.0
1904-01-01 00:09:13.656289891,E4_Acc,2024-06-27 11:33:24.829799891,-18.0,-62.0,9.0
1904-01-01 00:09:13.687539891,E4_Acc,2024-06-27 11:33:24.861049891,-18.0,-62.0,9.0
1904-01-01 00:09:13.718789891,E4_Acc,2024-06-27 11:33:24.892299891,-18.0,-61.0,9.0
1904-01-01 00:09:13.750039891,E4_Acc,2024-06-27 11:33:24.923549891,-18.0,-62.0,9.0
1904-01-01 00:09:13.781289891,E4_Acc,2024-06-27 11:33:24.954799891,-19.0,-62.0,9.0
1904-01-01 00:09:13.812549904,E4_Acc,2024-06-27 11:33:24.986059904,-19.0,-61.0,9.0
1904-01-01 00:09:13.843799904,E4_Acc,2024-06-27 11:33:25.017309904,-19.0,-62.0,9.0
1904-01-01 00:09:13.875049904,E4_Acc,2024-06-27 11:33:25.048559904,-19.0,-61.0,9.0
1904-01-01 00:09:13.906299904,E4_Acc,2024-06-27 11:33:25.079809904,-19.0,-61.0,9.0
1904-01-01 00:09:13.937549904,E4_Acc,2024-06-27 11:33:25.111059904,-19.0,-62.0,9.0
1904-01-01 00:09:13.968799904,E4_Acc,2024-06-27 11:33:25.142309904,-19.0,-62.0,9.0
1904-01-01 00:09:14.000049904,E4_Acc,2024-06-27 11:33:25.173559904,-18.0,-62.0,9.0
1904-01-01 00:09:14.031309918,E4_Acc,2024-06-27 11:33:25.204819918,-18.0,-61.0,9.0
1904-01-01 00:09:14.062559918,E4_Acc,2024-06-27 11:33:25.236069918,-18.0,-61.0,9.0
1904-01-01 00:09:14.093809918,E4_Acc,2024-06-27 11:33:25.267319918,-18.0,-61.0,9.0
1904-01-01 00:09:14.125059918,E4_Acc,2024-06-27 11:33:25.298569918,-18.0,-62.0,9.0
1904-01-01 00:09:14.156309918,E4_Acc,2024-06-27 11:33:25.329819918,-19.0,-62.0,9.0
1904-01-01 00:09:14.187559918,E4_Acc,2024-06-27 11:33:25.361069918,-18.0,-62.0,9.0
1904-01-01 00:09:14.218809918,E4_Acc,2024-06-27 11:33:25.392319918,-19.0,-61.0,9.0
1904-01-01 00:09:14.250069931,E4_Acc,2024-06-27 11:33:25.423579931,-18.0,-61.0,9.0
1904-01-01 00:09:14.281319931,E4_Acc,2024-06-27 11:33:25.454829931,-18.0,-62.0,9.0
1904-01-01 00:09:14.312569931,E4_Acc,2024-06-27 11:33:25.486079931,-18.0,-62.0,9.0
1904-01-01 00:09:14.343819931,E4_Acc,2024-06-27 11:33:25.517329931,-18.0,-61.0,8.0
1904-01-01 00:09:14.375069931,E4_Acc,2024-06-27 11:33:25.548579931,-18.0,-62.0,9.0
1904-01-01 00:09:14.406319931,E4_Acc,2024-06-27 11:33:25.579829931,-18.0,-61.0,9.0
1904-01-01 00:09:14.437569931,E4_Acc,2024-06-27 11:33:25.611079931,-18.0,-62.0,11.0
1904-01-01 00:09:14.468829945,E4_Acc,2024-06-27 11:33:25.642339945,-19.0,-62.0,11.0
1904-01-01 00:09:14.500079945,E4_Acc,2024-06-27 11:33:25.673589945,-18.0,-62.0,10.0
1904-01-01 00:09:14.531329945,E4_Acc,2024-06-27 11:33:25.704839945,-18.0,-61.0,10.0
1904-01-01 00:09:14.562579945,E4_Acc,2024-06-27 11:33:25.736089945,-19.0,-61.0,9.0
1904-01-01 00:09:14.593829945,E4_Acc,2024-06-27 11:33:25.767339945,-19.0,-61.0,9.0
1904-01-01 00:09:14.625079945,E4_Acc,2024-06-27 11:33:25.798589945,-19.0,-62.0,8.0
1904-01-01 00:09:14.656329945,E4_Acc,2024-06-27 11:33:25.829839945,-19.0,-62.0,8.0
1904-01-01 00:09:14.687589958,E4_Acc,2024-06-27 11:33:25.861099958,-18.0,-62.0,8.0
1904-01-01 00:09:14.718839958,E4_Acc,2024-06-27 11:33:25.892349958,-18.0,-61.0,9.0
1904-01-01 00:09:14.750089958,E4_Acc,2024-06-27 11:33:25.923599958,-18.0,-61.0,10.0
1904-01-01 00:09:14.781339958,E4_Acc,2024-06-27 11:33:25.954849958,-18.0,-62.0,10.0
1904-01-01 00:09:14.812589958,E4_Acc,2024-06-27 11:33:25.986099958,-18.0,-62.0,10.0
1904-01-01 00:09:14.843839958,E4_Acc,2024-06-27 11:33:26.017349958,-18.0,-61.0,10.0
1904-01-01 00:09:14.875089958,E4_Acc,2024-06-27 11:33:26.048599958,-18.0,-62.0,10.0
1904-01-01 00:09:14.906349972,E4_Acc,2024-06-27 11:33:26.079859972,-18.0,-62.0,9.0
1904-01-01 00:09:14.937599972,E4_Acc,2024-06-27 11:33:26.111109972,-18.0,-62.0,9.0
1904-01-01 00:09:14.968849972,E4_Acc,2024-06-27 11:33:26.142359972,-18.0,-61.0,9.0
1904-01-01 00:09:15.000099972,E4_Acc,2024-06-27 11:33:26.173609972,-18.0,-61.0,8.0
1904-01-01 00:09:15.031349972,E4_Acc,2024-06-27 11:33:26.204859972,-18.0,-62.0,8.0
1904-01-01 00:09:15.062599972,E4_Acc,2024-06-27 11:33:26.236109972,-19.0,-62.0,9.0
1904-01-01 00:09:15.093859986,E4_Acc,2024-06-27 11:33:26.267369986,-19.0,-61.0,9.0
1904-01-01 00:09:15.125109986,E4_Acc,2024-06-27 11:33:26.298619986,-18.0,-61.0,9.0
1904-01-01 00:09:15.156359986,E4_Acc,2024-06-27 11:33:26.329869986,-19.0,-61.0,10.0
1904-01-01 00:09:15.187609986,E4_Acc,2024-06-27 11:33:26.361119986,-19.0,-62.0,10.0
1904-01-01 00:09:15.218859986,E4_Acc,2024-06-27 11:33:26.392369986,-19.0,-62.0,10.0
1904-01-01 00:09:15.250109986,E4_Acc,2024-06-27 11:33:26.423619986,-19.0,-62.0,10.0
1904-01-01 00:09:15.281359986,E4_Acc,2024-06-27 11:33:26.454869986,-18.0,-61.0,10.0
1904-01-01 00:09:15.312619999,E4_Acc,2024-06-27 11:33:26.486129999,-18.0,-62.0,10.0
1904-01-01 00:09:15.343869999,E4_Acc,2024-06-27 11:33:26.517379999,-18.0,-62.0,9.0
1904-01-01 00:09:15.375119999,E4_Acc,2024-06-27 11:33:26.548629999,-18.0,-62.0,9.0
1904-01-01 00:09:15.406369999,E4_Acc,2024-06-27 11:33:26.579879999,-18.0,-61.0,9.0
1904-01-01 00:09:15.437619999,E4_Acc,2024-06-27 11:33:26.611129999,-18.0,-61.0,9.0
1904-01-01 00:09:15.468869999,E4_Acc,2024-06-27 11:33:26.642379999,-18.0,-62.0,9.0
1904-01-01 00:09:15.500119999,E4_Acc,2024-06-27 11:33:26.673629999,-18.0,-62.0,9.0
1904-01-01 00:09:15.531380013,E4_Acc,2024-06-27 11:33:26.704890013,-19.0,-62.0,9.0
1904-01-01 00:09:15.562630013,E4_Acc,2024-06-27 11:33:26.736140013,-19.0,-62.0,9.0
1904-01-01 00:09:15.593880013,E4_Acc,2024-06-27 11:33:26.767390013,-18.0,-62.0,9.0
1904-01-01 00:09:15.625130013,E4_Acc,2024-06-27 11:33:26.798640013,-18.0,-62.0,9.0
1904-01-01 00:09:15.656380013,E4_Acc,2024-06-27 11:33:26.829890013,-18.0,-62.0,9.0
1904-01-01 00:09:15.687630013,E4_Acc,2024-06-27 11:33:26.861140013,-18.0,-62.0,9.0
1904-01-01 00:09:15.718880013,E4_Acc,2024-06-27 11:33:26.892390013,-19.0,-62.0,10.0
1904-01-01 00:09:15.750140026,E4_Acc,2024-06-27 11:33:26.923650026,-18.0,-61.0,10.0
1904-01-01 00:09:15.781390026,E4_Acc,2024-06-27 11:33:26.954900026,-19.0,-62.0,9.0
1904-01-01 00:09:15.812640026,E4_Acc,2024-06-27 11:33:26.986150026,-18.0,-62.0,10.0
1904-01-01 00:09:15.843890026,E4_Acc,2024-06-27 11:33:27.017400026,-18.0,-61.0,9.0
1904-01-01 00:09:15.875140026,E4_Acc,2024-06-27 11:33:27.048650026,-19.0,-61.0,9.0
1904-01-01 00:09:15.906390026,E4_Acc,2024-06-27 11:33:27.079900026,-18.0,-61.0,9.0
1904-01-01 00:09:15.937640026,E4_Acc,2024-06-27 11:33:27.111150026,-18.0,-61.0,9.0
1904-01-01 00:09:15.968900040,E4_Acc,2024-06-27 11:33:27.142410040,-19.0,-62.0,9.0
1904-01-01 00:09:16.000150040,E4_Acc,2024-06-27 11:33:27.173660040,-18.0,-61.0,9.0
1904-01-01 00:09:16.031400040,E4_Acc,2024-06-27 11:33:27.204910040,-19.0,-61.0,9.0
1904-01-01 00:09:16.062650040,E4_Acc,2024-06-27 11:33:27.236160040,-18.0,-62.0,9.0
1904-01-01 00:09:16.093900040,E4_Acc,2024-06-27 11:33:27.267410040,-18.0,-62.0,9.0
1904-01-01 00:09:16.125150040,E4_Acc,2024-06-27 11:33:27.298660040,-19.0,-62.0,9.0
1904-01-01 00:09:16.156400040,E4_Acc,2024-06-27 11:33:27.329910040,-18.0,-62.0,9.0
1904-01-01 00:09:16.187660053,E4_Acc,2024-06-27 11:33:27.361170053,-18.0,-62.0,9.0
1904-01-01 00:09:16.218910053,E4_Acc,2024-06-27 11:33:27.392420053,-18.0,-61.0,9.0
1904-01-01 00:09:16.250160053,E4_Acc,2024-06-27 11:33:27.423670053,-18.0,-62.0,9.0
1904-01-01 00:09:16.281410053,E4_Acc,2024-06-27 11:33:27.454920053,-19.0,-62.0,9.0
1904-01-01 00:09:16.312660053,E4_Acc,2024-06-27 11:33:27.486170053,-19.0,-62.0,9.0
1904-01-01 00:09:16.343910053,E4_Acc,2024-06-27 11:33:27.517420053,-18.0,-62.0,9.0
1904-01-01 00:09:16.375160053,E4_Acc,2024-06-27 11:33:27.548670053,-19.0,-62.0,9.0
1904-01-01 00:09:16.406420067,E4_Acc,2024-06-27 11:33:27.579930067,-19.0,-62.0,9.0
1904-01-01 00:09:16.437670067,E4_Acc,2024-06-27 11:33:27.611180067,-19.0,-61.0,9.0
1904-01-01 00:09:16.468920067,E4_Acc,2024-06-27 11:33:27.642430067,-19.0,-62.0,9.0
1904-01-01 00:09:16.500170067,E4_Acc,2024-06-27 11:33:27.673680067,-19.0,-62.0,9.0
1904-01-01 00:09:16.531420067,E4_Acc,2024-06-27 11:33:27.704930067,-18.0,-61.0,9.0
1904-01-01 00:09:16.562670067,E4_Acc,2024-06-27 11:33:27.736180067,-19.0,-62.0,9.0
1904-01-01 00:09:16.593920067,E4_Acc,2024-06-27 11:33:27.767430067,-18.0,-62.0,9.0
1904-01-01 00:09:16.625180081,E4_Acc,2024-06-27 11:33:27.798690081,-18.0,-62.0,9.0
1904-01-01 00:09:16.656430081,E4_Acc,2024-06-27 11:33:27.829940081,-18.0,-62.0,9.0
1904-01-01 00:09:16.687680081,E4_Acc,2024-06-27 11:33:27.861190081,-18.0,-62.0,9.0
1904-01-01 00:09:16.718930081,E4_Acc,2024-06-27 11:33:27.892440081,-18.0,-61.0,9.0
1904-01-01 00:09:16.750180081,E4_Acc,2024-06-27 11:33:27.923690081,-18.0,-61.0,9.0
1904-01-01 00:09:16.781430081,E4_Acc,2024-06-27 11:33:27.954940081,-19.0,-61.0,9.0
1904-01-01 00:09:16.812680081,E4_Acc,2024-06-27 11:33:27.986190081,-18.0,-61.0,9.0
1904-01-01 00:09:16.843940094,E4_Acc,2024-06-27 11:33:28.017450094,-19.0,-62.0,9.0
1904-01-01 00:09:16.875190094,E4_Acc,2024-06-27 11:33:28.048700094,-19.0,-61.0,9.0
1904-01-01 00:09:16.906440094,E4_Acc,2024-06-27 11:33:28.079950094,-19.0,-61.0,9.0
1904-01-01 00:09:16.937690094,E4_Acc,2024-06-27 11:33:28.111200094,-19.0,-61.0,9.0
1904-01-01 00:09:16.968940094,E4_Acc,2024-06-27 11:33:28.142450094,-19.0,-61.0,9.0
1904-01-01 00:09:17.000190094,E4_Acc,2024-06-27 11:33:28.173700094,-19.0,-62.0,9.0
1904-01-01 00:09:17.031440094,E4_Acc,2024-06-27 11:33:28.204950094,-19.0,-62.0,9.0
1904-01-01 00:09:17.062700108,E4_Acc,2024-06-27 11:33:28.236210108,-18.0,-61.0,9.0
1904-01-01 00:09:17.093950107,E4_Acc,2024-06-27 11:33:28.267460107,-19.0,-61.0,9.0
1904-01-01 00:09:17.125200108,E4_Acc,2024-06-27 11:33:28.298710108,-18.0,-62.0,10.0
1904-01-01 00:09:17.156450108,E4_Acc,2024-06-27 11:33:28.329960108,-19.0,-62.0,10.0
1904-01-01 00:09:17.187700108,E4_Acc,2024-06-27 11:33:28.361210108,-19.0,-62.0,9.0
1904-01-01 00:09:17.218950108,E4_Acc,2024-06-27 11:33:28.392460108,-18.0,-61.0,10.0
1904-01-01 00:09:17.250200108,E4_Acc,2024-06-27 11:33:28.423710108,-19.0,-61.0,10.0
1904-01-01 00:09:17.281459883,E4_Acc,2024-06-27 11:33:28.454969883,-19.0,-61.0,10.0
1904-01-01 00:09:17.312709883,E4_Acc,2024-06-27 11:33:28.486219883,-19.0,-61.0,9.0
1904-01-01 00:09:17.343959882,E4_Acc,2024-06-27 11:33:28.517469882,-19.0,-61.0,10.0
1904-01-01 00:09:17.375209883,E4_Acc,2024-06-27 11:33:28.548719883,-19.0,-61.0,10.0
1904-01-01 00:09:17.406459883,E4_Acc,2024-06-27 11:33:28.579969883,-19.0,-62.0,10.0
1904-01-01 00:09:17.437709883,E4_Acc,2024-06-27 11:33:28.611219883,-19.0,-61.0,9.0
1904-01-01 00:09:17.468969897,E4_Acc,2024-06-27 11:33:28.642479897,-19.0,-61.0,9.0
1904-01-01 00:09:17.500219897,E4_Acc,2024-06-27 11:33:28.673729897,-19.0,-62.0,10.0
1904-01-01 00:09:17.531469897,E4_Acc,2024-06-27 11:33:28.704979897,-18.0,-61.0,10.0
1904-01-01 00:09:17.562719897,E4_Acc,2024-06-27 11:33:28.736229897,-18.0,-61.0,10.0
1904-01-01 00:09:17.593969897,E4_Acc,2024-06-27 11:33:28.767479897,-19.0,-61.0,10.0
1904-01-01 00:09:17.625219897,E4_Acc,2024-06-27 11:33:28.798729897,-18.0,-61.0,10.0
1904-01-01 00:09:17.656469897,E4_Acc,2024-06-27 11:33:28.829979897,-19.0,-61.0,10.0
1904-01-01 00:09:17.687729910,E4_Acc,2024-06-27 11:33:28.861239910,-19.0,-61.0,10.0
1904-01-01 00:09:17.718979910,E4_Acc,2024-06-27 11:33:28.892489910,-19.0,-61.0,10.0
1904-01-01 00:09:17.750229910,E4_Acc,2024-06-27 11:33:28.923739910,-20.0,-62.0,10.0
1904-01-01 00:09:17.781479910,E4_Acc,2024-06-27 11:33:28.954989910,-20.0,-61.0,10.0
1904-01-01 00:09:17.812729910,E4_Acc,2024-06-27 11:33:28.986239910,-19.0,-61.0,10.0
1904-01-01 00:09:17.843979910,E4_Acc,2024-06-27 11:33:29.017489910,-19.0,-61.0,10.0
1904-01-01 00:09:17.875229910,E4_Acc,2024-06-27 11:33:29.048739910,-19.0,-61.0,10.0
1904-01-01 00:09:17.906489924,E4_Acc,2024-06-27 11:33:29.079999924,-19.0,-61.0,10.0
1904-01-01 00:09:17.937739924,E4_Acc,2024-06-27 11:33:29.111249924,-19.0,-61.0,10.0
1904-01-01 00:09:17.968989924,E4_Acc,2024-06-27 11:33:29.142499924,-19.0,-61.0,10.0
1904-01-01 00:09:18.000239924,E4_Acc,2024-06-27 11:33:29.173749924,-18.0,-61.0,10.0
1904-01-01 00:09:18.031489924,E4_Acc,2024-06-27 11:33:29.204999924,-19.0,-61.0,10.0
1904-01-01 00:09:18.062739924,E4_Acc,2024-06-27 11:33:29.236249924,-19.0,-61.0,10.0
1904-01-01 00:09:18.093989924,E4_Acc,2024-06-27 11:33:29.267499924,-19.0,-61.0,10.0
1904-01-01 00:09:18.125249937,E4_Acc,2024-06-27 11:33:29.298759937,-19.0,-61.0,10.0
1904-01-01 00:09:18.156499937,E4_Acc,2024-06-27 11:33:29.330009937,-19.0,-61.0,10.0
1904-01-01 00:09:18.187749937,E4_Acc,2024-06-27 11:33:29.361259937,-19.0,-61.0,10.0
1904-01-01 00:09:18.218999937,E4_Acc,2024-06-27 11:33:29.392509937,-19.0,-61.0,9.0
1904-01-01 00:09:18.250249937,E4_Acc,2024-06-27 11:33:29.423759937,-20.0,-61.0,9.0
1904-01-01 00:09:18.281499937,E4_Acc,2024-06-27 11:33:29.455009937,-19.0,-61.0,9.0
1904-01-01 00:09:18.312749937,E4_Acc,2024-06-27 11:33:29.486259937,-19.0,-61.0,9.0
1904-01-01 00:09:18.344009951,E4_Acc,2024-06-27 11:33:29.517519951,-19.0,-61.0,9.0
1904-01-01 00:09:18.375259951,E4_Acc,2024-06-27 11:33:29.548769951,-19.0,-61.0,9.0
1904-01-01 00:09:18.406509951,E4_Acc,2024-06-27 11:33:29.580019951,-19.0,-62.0,9.0
1904-01-01 00:09:18.437759951,E4_Acc,2024-06-27 11:33:29.611269951,-19.0,-62.0,9.0
1904-01-01 00:09:18.469009951,E4_Acc,2024-06-27 11:33:29.642519951,-18.0,-62.0,10.0
1904-01-01 00:09:18.500259951,E4_Acc,2024-06-27 11:33:29.673769951,-19.0,-61.0,9.0
1904-01-01 00:09:18.531509951,E4_Acc,2024-06-27 11:33:29.705019951,-19.0,-62.0,10.0
1904-01-01 00:09:18.562769964,E4_Acc,2024-06-27 11:33:29.736279964,-19.0,-62.0,10.0
1904-01-01 00:09:18.594019964,E4_Acc,2024-06-27 11:33:29.767529964,-19.0,-61.0,10.0
1904-01-01 00:09:18.625269964,E4_Acc,2024-06-27 11:33:29.798779964,-19.0,-61.0,10.0
1904-01-01 00:09:18.656519964,E4_Acc,2024-06-27 11:33:29.830029964,-19.0,-61.0,10.0
1904-01-01 00:09:18.687769964,E4_Acc,2024-06-27 11:33:29.861279964,-20.0,-62.0,9.0
1904-01-01 00:09:18.719019964,E4_Acc,2024-06-27 11:33:29.892529964,-20.0,-62.0,10.0
1904-01-01 00:09:18.750269964,E4_Acc,2024-06-27 11:33:29.923779964,-19.0,-61.0,10.0
1904-01-01 00:09:18.781529978,E4_Acc,2024-06-27 11:33:29.955039978,-19.0,-61.0,9.0
1904-01-01 00:09:18.812779978,E4_Acc,2024-06-27 11:33:29.986289978,-19.0,-61.0,9.0
1904-01-01 00:09:18.844029978,E4_Acc,2024-06-27 11:33:30.017539978,-19.0,-62.0,9.0
1904-01-01 00:09:18.875279978,E4_Acc,2024-06-27 11:33:30.048789978,-19.0,-61.0,9.0
1904-01-01 00:09:18.906529978,E4_Acc,2024-06-27 11:33:30.080039978,-18.0,-61.0,9.0
1904-01-01 00:09:18.937779978,E4_Acc,2024-06-27 11:33:30.111289978,-18.0,-61.0,9.0
1904-01-01 00:09:18.969029978,E4_Acc,2024-06-27 11:33:30.142539978,-18.0,-61.0,9.0
1904-01-01 00:09:19.000289992,E4_Acc,2024-06-27 11:33:30.173799992,-18.0,-62.0,10.0
1904-01-01 00:09:19.031539992,E4_Acc,2024-06-27 11:33:30.205049992,-18.0,-61.0,10.0
1904-01-01 00:09:19.062789992,E4_Acc,2024-06-27 11:33:30.236299992,-18.0,-61.0,9.0
1904-01-01 00:09:19.094039992,E4_Acc,2024-06-27 11:33:30.267549992,-19.0,-61.0,9.0
1904-01-01 00:09:19.125289992,E4_Acc,2024-06-27 11:33:30.298799992,-19.0,-61.0,9.0
1904-01-01 00:09:19.156539992,E4_Acc,2024-06-27 11:33:30.330049992,-19.0,-62.0,9.0
1904-01-01 00:09:19.187789992,E4_Acc,2024-06-27 11:33:30.361299992,-19.0,-61.0,9.0
1904-01-01 00:09:19.219050005,E4_Acc,2024-06-27 11:33:30.392560005,-19.0,-61.0,9.0
1904-01-01 00:09:19.250300005,E4_Acc,2024-06-27 11:33:30.423810005,-19.0,-61.0,9.0
1904-01-01 00:09:19.281550005,E4_Acc,2024-06-27 11:33:30.455060005,-20.0,-61.0,9.0
1904-01-01 00:09:19.312800005,E4_Acc,2024-06-27 11:33:30.486310005,-19.0,-61.0,9.0
1904-01-01 00:09:19.344050005,E4_Acc,2024-06-27 11:33:30.517560005,-19.0,-62.0,9.0
1904-01-01 00:09:19.375300005,E4_Acc,2024-06-27 11:33:30.548810005,-19.0,-61.0,9.0
1904-01-01 00:09:19.406550005,E4_Acc,2024-06-27 11:33:30.580060005,-19.0,-61.0,10.0
1904-01-01 00:09:19.437810019,E4_Acc,2024-06-27 11:33:30.611320019,-19.0,-61.0,10.0
1904-01-01 00:09:19.469060019,E4_Acc,2024-06-27 11:33:30.642570019,-19.0,-62.0,10.0
1904-01-01 00:09:19.500310019,E4_Acc,2024-06-27 11:33:30.673820019,-19.0,-62.0,10.0
1904-01-01 00:09:19.531560019,E4_Acc,2024-06-27 11:33:30.705070019,-19.0,-61.0,9.0
1904-01-01 00:09:19.562810019,E4_Acc,2024-06-27 11:33:30.736320019,-19.0,-61.0,9.0
1904-01-01 00:09:19.594060019,E4_Acc,2024-06-27 11:33:30.767570019,-19.0,-61.0,9.0
1904-01-01 00:09:19.625310019,E4_Acc,2024-06-27 11:33:30.798820019,-20.0,-62.0,9.0
1904-01-01 00:09:19.656570032,E4_Acc,2024-06-27 11:33:30.830080032,-20.0,-62.0,9.0
1904-01-01 00:09:19.687820032,E4_Acc,2024-06-27 11:33:30.861330032,-19.0,-61.0,9.0
1904-01-01 00:09:19.719070032,E4_Acc,2024-06-27 11:33:30.892580032,-19.0,-61.0,9.0
1904-01-01 00:09:19.750320032,E4_Acc,2024-06-27 11:33:30.923830032,-19.0,-61.0,9.0
1904-01-01 00:09:19.781570032,E4_Acc,2024-06-27 11:33:30.955080032,-19.0,-62.0,10.0
1904-01-01 00:09:19.812820032,E4_Acc,2024-06-27 11:33:30.986330032,-19.0,-62.0,9.0
1904-01-01 00:09:19.844080046,E4_Acc,2024-06-27 11:33:31.017590046,-19.0,-61.0,9.0
1904-01-01 00:09:19.875330046,E4_Acc,2024-06-27 11:33:31.048840046,-19.0,-61.0,9.0
1904-01-01 00:09:19.906580046,E4_Acc,2024-06-27 11:33:31.080090046,-19.0,-61.0,9.0
1904-01-01 00:09:19.937830046,E4_Acc,2024-06-27 11:33:31.111340046,-18.0,-61.0,9.0
1904-01-01 00:09:19.969080046,E4_Acc,2024-06-27 11:33:31.142590046,-18.0,-61.0,9.0
1904-01-01 00:09:20.000330046,E4_Acc,2024-06-27 11:33:31.173840046,-19.0,-61.0,9.0
1904-01-01 00:09:20.031580046,E4_Acc,2024-06-27 11:33:31.205090046,-19.0,-61.0,9.0
1904-01-01 00:09:20.062840060,E4_Acc,2024-06-27 11:33:31.236350060,-19.0,-61.0,9.0
1904-01-01 00:09:20.094090059,E4_Acc,2024-06-27 11:33:31.267600059,-20.0,-61.0,9.0
1904-01-01 00:09:20.125340060,E4_Acc,2024-06-27 11:33:31.298850060,-20.0,-61.0,9.0
1904-01-01 00:09:20.156590060,E4_Acc,2024-06-27 11:33:31.330100060,-20.0,-61.0,10.0
1904-01-01 00:09:20.187840060,E4_Acc,2024-06-27 11:33:31.361350060,-20.0,-61.0,10.0
1904-01-01 00:09:20.219090060,E4_Acc,2024-06-27 11:33:31.392600060,-20.0,-61.0,10.0
1904-01-01 00:09:20.250340060,E4_Acc,2024-06-27 11:33:31.423850060,-19.0,-61.0,10.0
1904-01-01 00:09:20.281600073,E4_Acc,2024-06-27 11:33:31.455110073,-19.0,-61.0,9.0
1904-01-01 00:09:20.312850073,E4_Acc,2024-06-27 11:33:31.486360073,-19.0,-62.0,9.0
1904-01-01 00:09:20.344100072,E4_Acc,2024-06-27 11:33:31.517610072,-19.0,-61.0,9.0
1904-01-01 00:09:20.375350073,E4_Acc,2024-06-27 11:33:31.548860073,-18.0,-61.0,9.0
1904-01-01 00:09:20.406600073,E4_Acc,2024-06-27 11:33:31.580110073,-19.0,-61.0,9.0
1904-01-01 00:09:20.437850073,E4_Acc,2024-06-27 11:33:31.611360073,-19.0,-61.0,9.0
1904-01-01 00:09:20.469100073,E4_Acc,2024-06-27 11:33:31.642610073,-19.0,-61.0,9.0
1904-01-01 00:09:20.500360087,E4_Acc,2024-06-27 11:33:31.673870087,-19.0,-61.0,9.0
1904-01-01 00:09:20.531610087,E4_Acc,2024-06-27 11:33:31.705120087,-19.0,-61.0,9.0
1904-01-01 00:09:20.562860087,E4_Acc,2024-06-27 11:33:31.736370087,-19.0,-61.0,10.0
1904-01-01 00:09:20.594110087,E4_Acc,2024-06-27 11:33:31.767620087,-20.0,-62.0,10.0
1904-01-01 00:09:20.625360087,E4_Acc,2024-06-27 11:33:31.798870087,-20.0,-62.0,10.0
1904-01-01 00:09:20.656610087,E4_Acc,2024-06-27 11:33:31.830120087,-19.0,-61.0,10.0
1904-01-01 00:09:20.687860087,E4_Acc,2024-06-27 11:33:31.861370087,-19.0,-61.0,10.0
1904-01-01 00:09:20.719120100,E4_Acc,2024-06-27 11:33:31.892630100,-19.0,-62.0,10.0
1904-01-01 00:09:20.750370100,E4_Acc,2024-06-27 11:33:31.923880100,-19.0,-61.0,9.0
1904-01-01 00:09:20.781620100,E4_Acc,2024-06-27 11:33:31.955130100,-19.0,-62.0,9.0
1904-01-01 00:09:20.812870100,E4_Acc,2024-06-27 11:33:31.986380100,-18.0,-61.0,9.0
1904-01-01 00:09:20.844120100,E4_Acc,2024-06-27 11:33:32.017630100,-18.0,-61.0,9.0
1904-01-01 00:09:20.875370100,E4_Acc,2024-06-27 11:33:32.048880100,-18.0,-61.0,10.0
1904-01-01 00:09:20.906620100,E4_Acc,2024-06-27 11:33:32.080130100,-19.0,-61.0,10.0
1904-01-01 00:09:20.937880114,E4_Acc,2024-06-27 11:33:32.111390114,-19.0,-62.0,10.0
1904-01-01 00:09:20.969130114,E4_Acc,2024-06-27 11:33:32.142640114,-19.0,-61.0,10.0
1904-01-01 00:09:21.000380114,E4_Acc,2024-06-27 11:33:32.173890114,-19.0,-61.0,10.0
1904-01-01 00:09:21.031630114,E4_Acc,2024-06-27 11:33:32.205140114,-19.0,-61.0,9.0
1904-01-01 00:09:21.062880114,E4_Acc,2024-06-27 11:33:32.236390114,-19.0,-61.0,9.0
1904-01-01 00:09:21.094130113,E4_Acc,2024-06-27 11:33:32.267640113,-19.0,-61.0,9.0
1904-01-01 00:09:21.125380114,E4_Acc,2024-06-27 11:33:32.298890114,-19.0,-61.0,9.0
1904-01-01 00:09:21.156639889,E4_Acc,2024-06-27 11:33:32.330149889,-19.0,-61.0,9.0
1904-01-01 00:09:21.187889889,E4_Acc,2024-06-27 11:33:32.361399889,-19.0,-61.0,9.0
1904-01-01 00:09:21.219139889,E4_Acc,2024-06-27 11:33:32.392649889,-18.0,-61.0,9.0
1904-01-01 00:09:21.250389889,E4_Acc,2024-06-27 11:33:32.423899889,-18.0,-61.0,9.0
1904-01-01 00:09:21.281639889,E4_Acc,2024-06-27 11:33:32.455149889,-18.0,-62.0,9.0
1904-01-01 00:09:21.312889889,E4_Acc,2024-06-27 11:33:32.486399889,-18.0,-62.0,10.0
1904-01-01 00:09:21.344139889,E4_Acc,2024-06-27 11:33:32.517649889,-18.0,-61.0,10.0
1904-01-01 00:09:21.375399903,E4_Acc,2024-06-27 11:33:32.548909903,-19.0,-62.0,9.0
1904-01-01 00:09:21.406649903,E4_Acc,2024-06-27 11:33:32.580159903,-19.0,-62.0,10.0
1904-01-01 00:09:21.437899903,E4_Acc,2024-06-27 11:33:32.611409903,-19.0,-62.0,10.0
1904-01-01 00:09:21.469149903,E4_Acc,2024-06-27 11:33:32.642659903,-19.0,-61.0,10.0
1904-01-01 00:09:21.500399903,E4_Acc,2024-06-27 11:33:32.673909903,-19.0,-61.0,10.0
1904-01-01 00:09:21.531649903,E4_Acc,2024-06-27 11:33:32.705159903,-19.0,-62.0,9.0
1904-01-01 00:09:21.562899903,E4_Acc,2024-06-27 11:33:32.736409903,-19.0,-62.0,9.0
1904-01-01 00:09:21.594159916,E4_Acc,2024-06-27 11:33:32.767669916,-18.0,-62.0,9.0
1904-01-01 00:09:21.625409916,E4_Acc,2024-06-27 11:33:32.798919916,-18.0,-61.0,8.0
1904-01-01 00:09:21.656659916,E4_Acc,2024-06-27 11:33:32.830169916,-18.0,-61.0,9.0
1904-01-01 00:09:21.687909916,E4_Acc,2024-06-27 11:33:32.861419916,-18.0,-62.0,9.0
1904-01-01 00:09:21.719159916,E4_Acc,2024-06-27 11:33:32.892669916,-19.0,-62.0,9.0
1904-01-01 00:09:21.750409916,E4_Acc,2024-06-27 11:33:32.923919916,-19.0,-62.0,10.0
1904-01-01 00:09:21.781659916,E4_Acc,2024-06-27 11:33:32.955169916,-18.0,-61.0,9.0
1904-01-01 00:09:21.812919930,E4_Acc,2024-06-27 11:33:32.986429930,-18.0,-61.0,9.0
1904-01-01 00:09:21.844169930,E4_Acc,2024-06-27 11:33:33.017679930,-18.0,-62.0,9.0
1904-01-01 00:09:21.875419930,E4_Acc,2024-06-27 11:33:33.048929930,-18.0,-62.0,9.0
1904-01-01 00:09:21.906669930,E4_Acc,2024-06-27 11:33:33.080179930,-19.0,-62.0,9.0
1904-01-01 00:09:21.937919930,E4_Acc,2024-06-27 11:33:33.111429930,-18.0,-61.0,9.0
1904-01-01 00:09:21.969169930,E4_Acc,2024-06-27 11:33:33.142679930,-19.0,-62.0,9.0
1904-01-01 00:09:22.000419930,E4_Acc,2024-06-27 11:33:33.173929930,-19.0,-62.0,9.0
1904-01-01 00:09:22.031679943,E4_Acc,2024-06-27 11:33:33.205189943,-18.0,-62.0,9.0
1904-01-01 00:09:22.062929943,E4_Acc,2024-06-27 11:33:33.236439943,-19.0,-62.0,9.0
1904-01-01 00:09:22.094179943,E4_Acc,2024-06-27 11:33:33.267689943,-18.0,-61.0,9.0
1904-01-01 00:09:22.125429943,E4_Acc,2024-06-27 11:33:33.298939943,-18.0,-61.0,9.0
1904-01-01 00:09:22.156679943,E4_Acc,2024-06-27 11:33:33.330189943,-19.0,-62.0,9.0
1904-01-01 00:09:22.187929943,E4_Acc,2024-06-27 11:33:33.361439943,-19.0,-62.0,9.0
1904-01-01 00:09:22.219179943,E4_Acc,2024-06-27 11:33:33.392689943,-18.0,-61.0,9.0
1904-01-01 00:09:22.250439957,E4_Acc,2024-06-27 11:33:33.423949957,-18.0,-62.0,9.0
1904-01-01 00:09:22.281689957,E4_Acc,2024-06-27 11:33:33.455199957,-18.0,-62.0,9.0
1904-01-01 00:09:22.312939957,E4_Acc,2024-06-27 11:33:33.486449957,-18.0,-61.0,9.0
1904-01-01 00:09:22.344189957,E4_Acc,2024-06-27 11:33:33.517699957,-18.0,-62.0,9.0
1904-01-01 00:09:22.375439957,E4_Acc,2024-06-27 11:33:33.548949957,-19.0,-62.0,9.0
1904-01-01 00:09:22.406689957,E4_Acc,2024-06-27 11:33:33.580199957,-18.0,-62.0,9.0
1904-01-01 00:09:22.437949970,E4_Acc,2024-06-27 11:33:33.611459970,-19.0,-61.0,9.0
1904-01-01 00:09:22.469199970,E4_Acc,2024-06-27 11:33:33.642709970,-19.0,-61.0,9.0
1904-01-01 00:09:22.500449970,E4_Acc,2024-06-27 11:33:33.673959970,-18.0,-61.0,8.0
1904-01-01 00:09:22.531699970,E4_Acc,2024-06-27 11:33:33.705209970,-19.0,-62.0,9.0
1904-01-01 00:09:22.562949970,E4_Acc,2024-06-27 11:33:33.736459970,-19.0,-62.0,9.0
1904-01-01 00:09:22.594199970,E4_Acc,2024-06-27 11:33:33.767709970,-19.0,-61.0,9.0
1904-01-01 00:09:22.625449970,E4_Acc,2024-06-27 11:33:33.798959970,-19.0,-61.0,9.0
1904-01-01 00:09:22.656709984,E4_Acc,2024-06-27 11:33:33.830219984,-18.0,-62.0,9.0
1904-01-01 00:09:22.687959984,E4_Acc,2024-06-27 11:33:33.861469984,-19.0,-62.0,9.0
1904-01-01 00:09:22.719209984,E4_Acc,2024-06-27 11:33:33.892719984,-18.0,-61.0,9.0
1904-01-01 00:09:22.750459984,E4_Acc,2024-06-27 11:33:33.923969984,-18.0,-61.0,9.0
1904-01-01 00:09:22.781709984,E4_Acc,2024-06-27 11:33:33.955219984,-18.0,-62.0,9.0
1904-01-01 00:09:22.812959984,E4_Acc,2024-06-27 11:33:33.986469984,-18.0,-62.0,8.0
1904-01-01 00:09:22.844209984,E4_Acc,2024-06-27 11:33:34.017719984,-18.0,-62.0,8.0
1904-01-01 00:09:22.875469998,E4_Acc,2024-06-27 11:33:34.048979998,-19.0,-61.0,9.0
1904-01-01 00:09:22.906719998,E4_Acc,2024-06-27 11:33:34.080229998,-19.0,-61.0,8.0
1904-01-01 00:09:22.937969998,E4_Acc,2024-06-27 11:33:34.111479998,-19.0,-61.0,9.0
1904-01-01 00:09:22.969219998,E4_Acc,2024-06-27 11:33:34.142729998,-19.0,-62.0,9.0
1904-01-01 00:09:23.000469998,E4_Acc,2024-06-27 11:33:34.173979998,-20.0,-62.0,9.0
1904-01-01 00:09:23.031719998,E4_Acc,2024-06-27 11:33:34.205229998,-20.0,-62.0,9.0
1904-01-01 00:09:23.062969998,E4_Acc,2024-06-27 11:33:34.236479998,-19.0,-61.0,10.0
1904-01-01 00:09:23.094230011,E4_Acc,2024-06-27 11:33:34.267740011,-19.0,-61.0,10.0
1904-01-01 00:09:23.125480011,E4_Acc,2024-06-27 11:33:34.298990011,-20.0,-62.0,10.0
1904-01-01 00:09:23.156730011,E4_Acc,2024-06-27 11:33:34.330240011,-19.0,-62.0,10.0
1904-01-01 00:09:23.187980011,E4_Acc,2024-06-27 11:33:34.361490011,-19.0,-62.0,9.0
1904-01-01 00:09:23.219230011,E4_Acc,2024-06-27 11:33:34.392740011,-19.0,-62.0,9.0
1904-01-01 00:09:23.250480011,E4_Acc,2024-06-27 11:33:34.423990011,-19.0,-61.0,10.0
1904-01-01 00:09:23.281730011,E4_Acc,2024-06-27 11:33:34.455240011,-18.0,-61.0,10.0
1904-01-01 00:09:23.312990025,E4_Acc,2024-06-27 11:33:34.486500025,-19.0,-61.0,10.0
1904-01-01 00:09:23.344240025,E4_Acc,2024-06-27 11:33:34.517750025,-19.0,-61.0,10.0
1904-01-01 00:09:23.375490025,E4_Acc,2024-06-27 11:33:34.549000025,-19.0,-61.0,10.0
1904-01-01 00:09:23.406740025,E4_Acc,2024-06-27 11:33:34.580250025,-19.0,-61.0,9.0
1904-01-01 00:09:23.437990025,E4_Acc,2024-06-27 11:33:34.611500025,-19.0,-61.0,9.0
1904-01-01 00:09:23.469240025,E4_Acc,2024-06-27 11:33:34.642750025,-19.0,-61.0,9.0
1904-01-01 00:09:23.500490025,E4_Acc,2024-06-27 11:33:34.674000025,-20.0,-61.0,9.0
1904-01-01 00:09:23.531750038,E4_Acc,2024-06-27 11:33:34.705260038,-19.0,-61.0,9.0
1904-01-01 00:09:23.563000038,E4_Acc,2024-06-27 11:33:34.736510038,-19.0,-61.0,9.0
1904-01-01 00:09:23.594250038,E4_Acc,2024-06-27 11:33:34.767760038,-19.0,-61.0,9.0
1904-01-01 00:09:23.625500038,E4_Acc,2024-06-27 11:33:34.799010038,-19.0,-61.0,9.0
1904-01-01 00:09:23.656750038,E4_Acc,2024-06-27 11:33:34.830260038,-19.0,-61.0,10.0
1904-01-01 00:09:23.688000038,E4_Acc,2024-06-27 11:33:34.861510038,-19.0,-61.0,9.0
1904-01-01 00:09:23.719250038,E4_Acc,2024-06-27 11:33:34.892760038,-19.0,-61.0,9.0
1904-01-01 00:09:23.750510052,E4_Acc,2024-06-27 11:33:34.924020052,-19.0,-61.0,10.0
1904-01-01 00:09:23.781760052,E4_Acc,2024-06-27 11:33:34.955270052,-19.0,-61.0,10.0
1904-01-01 00:09:23.813010052,E4_Acc,2024-06-27 11:33:34.986520052,-19.0,-61.0,10.0
1904-01-01 00:09:23.844260052,E4_Acc,2024-06-27 11:33:35.017770052,-19.0,-61.0,10.0
1904-01-01 00:09:23.875510052,E4_Acc,2024-06-27 11:33:35.049020052,-19.0,-61.0,10.0
1904-01-01 00:09:23.906760052,E4_Acc,2024-06-27 11:33:35.080270052,-19.0,-61.0,10.0
1904-01-01 00:09:23.938010052,E4_Acc,2024-06-27 11:33:35.111520052,-20.0,-61.0,10.0
1904-01-01 00:09:23.969270066,E4_Acc,2024-06-27 11:33:35.142780066,-19.0,-62.0,10.0
1904-01-01 00:09:24.000520066,E4_Acc,2024-06-27 11:33:35.174030066,-19.0,-61.0,10.0
1904-01-01 00:09:24.031770066,E4_Acc,2024-06-27 11:33:35.205280066,-19.0,-61.0,10.0
1904-01-01 00:09:24.063020066,E4_Acc,2024-06-27 11:33:35.236530066,-19.0,-62.0,10.0
1904-01-01 00:09:24.094270065,E4_Acc,2024-06-27 11:33:35.267780065,-19.0,-61.0,10.0
1904-01-01 00:09:24.125520066,E4_Acc,2024-06-27 11:33:35.299030066,-19.0,-62.0,10.0
1904-01-01 00:09:24.156770066,E4_Acc,2024-06-27 11:33:35.330280066,-19.0,-62.0,10.0
1904-01-01 00:09:24.188030079,E4_Acc,2024-06-27 11:33:35.361540079,-19.0,-61.0,10.0
1904-01-01 00:09:24.219280079,E4_Acc,2024-06-27 11:33:35.392790079,-19.0,-61.0,10.0
1904-01-01 00:09:24.250530079,E4_Acc,2024-06-27 11:33:35.424040079,-19.0,-61.0,10.0
1904-01-01 00:09:24.281780079,E4_Acc,2024-06-27 11:33:35.455290079,-19.0,-62.0,10.0
1904-01-01 00:09:24.313030079,E4_Acc,2024-06-27 11:33:35.486540079,-19.0,-61.0,9.0
1904-01-01 00:09:24.344280078,E4_Acc,2024-06-27 11:33:35.517790078,-19.0,-61.0,9.0
1904-01-01 00:09:24.375530079,E4_Acc,2024-06-27 11:33:35.549040079,-19.0,-61.0,10.0
1904-01-01 00:09:24.406790093,E4_Acc,2024-06-27 11:33:35.580300093,-19.0,-61.0,10.0
1904-01-01 00:09:24.438040093,E4_Acc,2024-06-27 11:33:35.611550093,-19.0,-62.0,10.0
1904-01-01 00:09:24.469290093,E4_Acc,2024-06-27 11:33:35.642800093,-19.0,-61.0,10.0
1904-01-01 00:09:24.500540093,E4_Acc,2024-06-27 11:33:35.674050093,-19.0,-61.0,10.0
1904-01-01 00:09:24.531790093,E4_Acc,2024-06-27 11:33:35.705300093,-19.0,-61.0,10.0
1904-01-01 00:09:24.563040093,E4_Acc,2024-06-27 11:33:35.736550093,-19.0,-62.0,10.0
1904-01-01 00:09:24.594290093,E4_Acc,2024-06-27 11:33:35.767800093,-19.0,-62.0,10.0
1904-01-01 00:09:24.625550106,E4_Acc,2024-06-27 11:33:35.799060106,-18.0,-61.0,9.0
1904-01-01 00:09:24.656800106,E4_Acc,2024-06-27 11:33:35.830310106,-18.0,-61.0,9.0
1904-01-01 00:09:24.688050106,E4_Acc,2024-06-27 11:33:35.861560106,-19.0,-61.0,9.0
1904-01-01 00:09:24.719300106,E4_Acc,2024-06-27 11:33:35.892810106,-18.0,-62.0,9.0
1904-01-01 00:09:24.750550106,E4_Acc,2024-06-27 11:33:35.924060106,-18.0,-62.0,10.0
1904-01-01 00:09:24.781800106,E4_Acc,2024-06-27 11:33:35.955310106,-18.0,-61.0,10.0
1904-01-01 00:09:24.813059881,E4_Acc,2024-06-27 11:33:35.986569881,-18.0,-61.0,10.0
1904-01-01 00:09:24.844309881,E4_Acc,2024-06-27 11:33:36.017819881,-18.0,-62.0,10.0
1904-01-01 00:09:24.875559881,E4_Acc,2024-06-27 11:33:36.049069881,-18.0,-62.0,10.0
1904-01-01 00:09:24.906809881,E4_Acc,2024-06-27 11:33:36.080319881,-19.0,-61.0,10.0
1904-01-01 00:09:24.938059881,E4_Acc,2024-06-27 11:33:36.111569881,-18.0,-61.0,9.0
1904-01-01 00:09:24.969309881,E4_Acc,2024-06-27 11:33:36.142819881,-19.0,-62.0,9.0
1904-01-01 00:09:25.000559881,E4_Acc,2024-06-27 11:33:36.174069881,-18.0,-61.0,9.0
1904-01-01 00:09:25.031819895,E4_Acc,2024-06-27 11:33:36.205329895,-18.0,-61.0,9.0
1904-01-01 00:09:25.063069895,E4_Acc,2024-06-27 11:33:36.236579895,-18.0,-62.0,9.0
1904-01-01 00:09:25.094319894,E4_Acc,2024-06-27 11:33:36.267829894,-19.0,-62.0,9.0
1904-01-01 00:09:25.125569895,E4_Acc,2024-06-27 11:33:36.299079895,-19.0,-62.0,10.0
1904-01-01 00:09:25.156819895,E4_Acc,2024-06-27 11:33:36.330329895,-19.0,-62.0,9.0
1904-01-01 00:09:25.188069895,E4_Acc,2024-06-27 11:33:36.361579895,-19.0,-62.0,9.0
1904-01-01 00:09:25.219319895,E4_Acc,2024-06-27 11:33:36.392829895,-19.0,-62.0,9.0
1904-01-01 00:09:25.250579909,E4_Acc,2024-06-27 11:33:36.424089909,-19.0,-61.0,9.0
1904-01-01 00:09:25.281829909,E4_Acc,2024-06-27 11:33:36.455339909,-18.0,-61.0,9.0
1904-01-01 00:09:25.313079909,E4_Acc,2024-06-27 11:33:36.486589909,-19.0,-62.0,9.0
1904-01-01 00:09:25.344329909,E4_Acc,2024-06-27 11:33:36.517839909,-19.0,-62.0,9.0
1904-01-01 00:09:25.375579909,E4_Acc,2024-06-27 11:33:36.549089909,-19.0,-62.0,9.0
1904-01-01 00:09:25.406829909,E4_Acc,2024-06-27 11:33:36.580339909,-19.0,-61.0,9.0
1904-01-01 00:09:25.438079909,E4_Acc,2024-06-27 11:33:36.611589909,-19.0,-61.0,9.0
1904-01-01 00:09:25.469339922,E4_Acc,2024-06-27 11:33:36.642849922,-19.0,-62.0,10.0
1904-01-01 00:09:25.500589922,E4_Acc,2024-06-27 11:33:36.674099922,-19.0,-62.0,10.0
1904-01-01 00:09:25.531839922,E4_Acc,2024-06-27 11:33:36.705349922,-19.0,-62.0,10.0
1904-01-01 00:09:25.563089922,E4_Acc,2024-06-27 11:33:36.736599922,-19.0,-61.0,10.0
1904-01-01 00:09:25.594339922,E4_Acc,2024-06-27 11:33:36.767849922,-19.0,-61.0,9.0
1904-01-01 00:09:25.625589922,E4_Acc,2024-06-27 11:33:36.799099922,-19.0,-62.0,9.0
1904-01-01 00:09:25.656839922,E4_Acc,2024-06-27 11:33:36.830349922,-19.0,-62.0,9.0
1904-01-01 00:09:25.688099936,E4_Acc,2024-06-27 11:33:36.861609936,-19.0,-62.0,9.0
1904-01-01 00:09:25.719349936,E4_Acc,2024-06-27 11:33:36.892859936,-18.0,-61.0,9.0
1904-01-01 00:09:25.750599936,E4_Acc,2024-06-27 11:33:36.924109936,-18.0,-61.0,9.0
1904-01-01 00:09:25.781849936,E4_Acc,2024-06-27 11:33:36.955359936,-18.0,-61.0,9.0
1904-01-01 00:09:25.813099936,E4_Acc,2024-06-27 11:33:36.986609936,-19.0,-62.0,9.0
1904-01-01 00:09:25.844349936,E4_Acc,2024-06-27 11:33:37.017859936,-19.0,-62.0,9.0
1904-01-01 00:09:25.875599936,E4_Acc,2024-06-27 11:33:37.049109936,-18.0,-62.0,9.0
1904-01-01 00:09:25.906859949,E4_Acc,2024-06-27 11:33:37.080369949,-18.0,-62.0,9.0
1904-01-01 00:09:25.938109949,E4_Acc,2024-06-27 11:33:37.111619949,-18.0,-61.0,9.0
1904-01-01 00:09:25.969359949,E4_Acc,2024-06-27 11:33:37.142869949,-18.0,-62.0,9.0
1904-01-01 00:09:26.000609949,E4_Acc,2024-06-27 11:33:37.174119949,-18.0,-62.0,9.0
1904-01-01 00:09:26.031859949,E4_Acc,2024-06-27 11:33:37.205369949,-18.0,-62.0,10.0
1904-01-01 00:09:26.063109949,E4_Acc,2024-06-27 11:33:37.236619949,-18.0,-62.0,10.0
1904-01-01 00:09:26.094359949,E4_Acc,2024-06-27 11:33:37.267869949,-18.0,-62.0,9.0
1904-01-01 00:09:26.125619963,E4_Acc,2024-06-27 11:33:37.299129963,-18.0,-62.0,9.0
1904-01-01 00:09:26.156869963,E4_Acc,2024-06-27 11:33:37.330379963,-18.0,-62.0,9.0
1904-01-01 00:09:26.188119963,E4_Acc,2024-06-27 11:33:37.361629963,-19.0,-61.0,9.0
1904-01-01 00:09:26.219369963,E4_Acc,2024-06-27 11:33:37.392879963,-18.0,-61.0,9.0
1904-01-01 00:09:26.250619963,E4_Acc,2024-06-27 11:33:37.424129963,-18.0,-62.0,9.0
1904-01-01 00:09:26.281869963,E4_Acc,2024-06-27 11:33:37.455379963,-19.0,-62.0,9.0
1904-01-01 00:09:26.313119963,E4_Acc,2024-06-27 11:33:37.486629963,-18.0,-62.0,9.0
1904-01-01 00:09:26.344379976,E4_Acc,2024-06-27 11:33:37.517889976,-18.0,-61.0,9.0
1904-01-01 00:09:26.375629977,E4_Acc,2024-06-27 11:33:37.549139977,-18.0,-62.0,10.0
1904-01-01 00:09:26.406879977,E4_Acc,2024-06-27 11:33:37.580389977,-18.0,-62.0,10.0
1904-01-01 00:09:26.438129977,E4_Acc,2024-06-27 11:33:37.611639977,-19.0,-62.0,10.0
1904-01-01 00:09:26.469379977,E4_Acc,2024-06-27 11:33:37.642889977,-18.0,-61.0,10.0
1904-01-01 00:09:26.500629977,E4_Acc,2024-06-27 11:33:37.674139977,-18.0,-62.0,10.0
1904-01-01 00:09:26.531879977,E4_Acc,2024-06-27 11:33:37.705389977,-19.0,-61.0,10.0
1904-01-01 00:09:26.563139990,E4_Acc,2024-06-27 11:33:37.736649990,-18.0,-61.0,10.0
1904-01-01 00:09:26.594389990,E4_Acc,2024-06-27 11:33:37.767899990,-19.0,-61.0,10.0
1904-01-01 00:09:26.625639990,E4_Acc,2024-06-27 11:33:37.799149990,-18.0,-61.0,10.0
1904-01-01 00:09:26.656889990,E4_Acc,2024-06-27 11:33:37.830399990,-19.0,-61.0,10.0
1904-01-01 00:09:26.688139990,E4_Acc,2024-06-27 11:33:37.861649990,-19.0,-62.0,10.0
1904-01-01 00:09:26.719389990,E4_Acc,2024-06-27 11:33:37.892899990,-19.0,-61.0,10.0
1904-01-01 00:09:26.750639990,E4_Acc,2024-06-27 11:33:37.924149990,-19.0,-61.0,9.0
1904-01-01 00:09:26.781900004,E4_Acc,2024-06-27 11:33:37.955410004,-19.0,-61.0,9.0
1904-01-01 00:09:26.813150004,E4_Acc,2024-06-27 11:33:37.986660004,-18.0,-61.0,9.0
1904-01-01 00:09:26.844400004,E4_Acc,2024-06-27 11:33:38.017910004,-18.0,-61.0,9.0
1904-01-01 00:09:26.875650004,E4_Acc,2024-06-27 11:33:38.049160004,-19.0,-61.0,9.0
1904-01-01 00:09:26.906900004,E4_Acc,2024-06-27 11:33:38.080410004,-19.0,-62.0,9.0
1904-01-01 00:09:26.938150004,E4_Acc,2024-06-27 11:33:38.111660004,-19.0,-61.0,10.0
1904-01-01 00:09:26.969410017,E4_Acc,2024-06-27 11:33:38.142920017,-18.0,-61.0,10.0
1904-01-01 00:09:27.000660017,E4_Acc,2024-06-27 11:33:38.174170017,-19.0,-61.0,10.0
1904-01-01 00:09:27.031910017,E4_Acc,2024-06-27 11:33:38.205420017,-19.0,-62.0,9.0
1904-01-01 00:09:27.063160017,E4_Acc,2024-06-27 11:33:38.236670017,-19.0,-61.0,10.0
1904-01-01 00:09:27.094410017,E4_Acc,2024-06-27 11:33:38.267920017,-19.0,-61.0,9.0
1904-01-01 00:09:27.125660017,E4_Acc,2024-06-27 11:33:38.299170017,-19.0,-61.0,9.0
1904-01-01 00:09:27.156910017,E4_Acc,2024-06-27 11:33:38.330420017,-19.0,-62.0,9.0
1904-01-01 00:09:27.188170031,E4_Acc,2024-06-27 11:33:38.361680031,-19.0,-62.0,9.0
1904-01-01 00:09:27.219420031,E4_Acc,2024-06-27 11:33:38.392930031,-18.0,-61.0,9.0
1904-01-01 00:09:27.250670031,E4_Acc,2024-06-27 11:33:38.424180031,-18.0,-61.0,9.0
1904-01-01 00:09:27.281920031,E4_Acc,2024-06-27 11:33:38.455430031,-18.0,-61.0,9.0
1904-01-01 00:09:27.313170031,E4_Acc,2024-06-27 11:33:38.486680031,-18.0,-62.0,9.0
1904-01-01 00:09:27.344420031,E4_Acc,2024-06-27 11:33:38.517930031,-19.0,-62.0,9.0
1904-01-01 00:09:27.375670031,E4_Acc,2024-06-27 11:33:38.549180031,-18.0,-62.0,9.0
1904-01-01 00:09:27.406930044,E4_Acc,2024-06-27 11:33:38.580440044,-18.0,-62.0,9.0
1904-01-01 00:09:27.438180044,E4_Acc,2024-06-27 11:33:38.611690044,-18.0,-62.0,9.0
1904-01-01 00:09:27.469430044,E4_Acc,2024-06-27 11:33:38.642940044,-18.0,-62.0,9.0
1904-01-01 00:09:27.500680044,E4_Acc,2024-06-27 11:33:38.674190044,-18.0,-62.0,9.0
1904-01-01 00:09:27.531930044,E4_Acc,2024-06-27 11:33:38.705440044,-18.0,-62.0,9.0
1904-01-01 00:09:27.563180044,E4_Acc,2024-06-27 11:33:38.736690044,-18.0,-62.0,9.0
1904-01-01 00:09:27.594430044,E4_Acc,2024-06-27 11:33:38.767940044,-18.0,-62.0,9.0
1904-01-01 00:09:27.625690058,E4_Acc,2024-06-27 11:33:38.799200058,-18.0,-62.0,9.0
1904-01-01 00:09:27.656940058,E4_Acc,2024-06-27 11:33:38.830450058,-18.0,-62.0,9.0
1904-01-01 00:09:27.688190058,E4_Acc,2024-06-27 11:33:38.861700058,-18.0,-62.0,9.0
1904-01-01 00:09:27.719440058,E4_Acc,2024-06-27 11:33:38.892950058,-18.0,-62.0,9.0
1904-01-01 00:09:27.750690058,E4_Acc,2024-06-27 11:33:38.924200058,-18.0,-62.0,9.0
1904-01-01 00:09:27.781940058,E4_Acc,2024-06-27 11:33:38.955450058,-18.0,-61.0,9.0
1904-01-01 00:09:27.813190058,E4_Acc,2024-06-27 11:33:38.986700058,-18.0,-62.0,8.0
1904-01-01 00:09:27.844450072,E4_Acc,2024-06-27 11:33:39.017960072,-18.0,-62.0,8.0
1904-01-01 00:09:27.875700072,E4_Acc,2024-06-27 11:33:39.049210072,-18.0,-61.0,9.0
1904-01-01 00:09:27.906950072,E4_Acc,2024-06-27 11:33:39.080460072,-18.0,-61.0,9.0
1904-01-01 00:09:27.938200072,E4_Acc,2024-06-27 11:33:39.111710072,-18.0,-62.0,8.0
1904-01-01 00:09:27.969450072,E4_Acc,2024-06-27 11:33:39.142960072,-18.0,-62.0,8.0
1904-01-01 00:09:28.000700072,E4_Acc,2024-06-27 11:33:39.174210072,-18.0,-62.0,8.0
1904-01-01 00:09:28.031950072,E4_Acc,2024-06-27 11:33:39.205460072,-18.0,-61.0,8.0
1904-01-01 00:09:28.063210085,E4_Acc,2024-06-27 11:33:39.236720085,-18.0,-61.0,9.0
1904-01-01 00:09:28.094460085,E4_Acc,2024-06-27 11:33:39.267970085,-18.0,-62.0,9.0
1904-01-01 00:09:28.125710085,E4_Acc,2024-06-27 11:33:39.299220085,-19.0,-62.0,9.0
1904-01-01 00:09:28.156960085,E4_Acc,2024-06-27 11:33:39.330470085,-19.0,-62.0,9.0
1904-01-01 00:09:28.188210085,E4_Acc,2024-06-27 11:33:39.361720085,-19.0,-61.0,9.0
1904-01-01 00:09:28.219460085,E4_Acc,2024-06-27 11:33:39.392970085,-19.0,-61.0,9.0
1904-01-01 00:09:28.250710085,E4_Acc,2024-06-27 11:33:39.424220085,-19.0,-62.0,9.0
1904-01-01 00:09:28.281970099,E4_Acc,2024-06-27 11:33:39.455480099,-19.0,-62.0,9.0
1904-01-01 00:09:28.313220099,E4_Acc,2024-06-27 11:33:39.486730099,-19.0,-62.0,9.0
1904-01-01 00:09:28.344470099,E4_Acc,2024-06-27 11:33:39.517980099,-19.0,-61.0,9.0
1904-01-01 00:09:28.375720099,E4_Acc,2024-06-27 11:33:39.549230099,-19.0,-61.0,9.0
1904-01-01 00:09:28.406970099,E4_Acc,2024-06-27 11:33:39.580480099,-19.0,-62.0,9.0
1904-01-01 00:09:28.438220099,E4_Acc,2024-06-27 11:33:39.611730099,-19.0,-61.0,9.0
1904-01-01 00:09:28.469470099,E4_Acc,2024-06-27 11:33:39.642980099,-19.0,-61.0,9.0
1904-01-01 00:09:28.500730112,E4_Acc,2024-06-27 11:33:39.674240112,-19.0,-61.0,9.0
1904-01-01 00:09:28.531980112,E4_Acc,2024-06-27 11:33:39.705490112,-18.0,-62.0,9.0
1904-01-01 00:09:28.563230112,E4_Acc,2024-06-27 11:33:39.736740112,-18.0,-62.0,8.0
1904-01-01 00:09:28.594480112,E4_Acc,2024-06-27 11:33:39.767990112,-18.0,-62.0,8.0
1904-01-01 00:09:28.625730112,E4_Acc,2024-06-27 11:33:39.799240112,-18.0,-62.0,9.0
1904-01-01 00:09:28.656980112,E4_Acc,2024-06-27 11:33:39.830490112,-18.0,-61.0,9.0
1904-01-01 00:09:28.688230112,E4_Acc,2024-06-27 11:33:39.861740112,-18.0,-62.0,9.0
1904-01-01 00:09:28.719489887,E4_Acc,2024-06-27 11:33:39.892999887,-18.0,-62.0,9.0
1904-01-01 00:09:28.750739887,E4_Acc,2024-06-27 11:33:39.924249887,-18.0,-61.0,9.0
1904-01-01 00:09:28.781989887,E4_Acc,2024-06-27 11:33:39.955499887,-18.0,-62.0,9.0
1904-01-01 00:09:28.813239887,E4_Acc,2024-06-27 11:33:39.986749887,-18.0,-62.0,9.0
1904-01-01 00:09:28.844489887,E4_Acc,2024-06-27 11:33:40.017999887,-18.0,-62.0,9.0
1904-01-01 00:09:28.875739887,E4_Acc,2024-06-27 11:33:40.049249887,-19.0,-62.0,9.0
1904-01-01 00:09:28.906989887,E4_Acc,2024-06-27 11:33:40.080499887,-19.0,-62.0,9.0
1904-01-01 00:09:28.938249901,E4_Acc,2024-06-27 11:33:40.111759901,-19.0,-61.0,9.0
1904-01-01 00:09:28.969499901,E4_Acc,2024-06-27 11:33:40.143009901,-19.0,-61.0,9.0
1904-01-01 00:09:29.000749901,E4_Acc,2024-06-27 11:33:40.174259901,-19.0,-61.0,9.0
1904-01-01 00:09:29.031999901,E4_Acc,2024-06-27 11:33:40.205509901,-19.0,-62.0,9.0
1904-01-01 00:09:29.063249901,E4_Acc,2024-06-27 11:33:40.236759901,-20.0,-62.0,9.0
1904-01-01 00:09:29.094499901,E4_Acc,2024-06-27 11:33:40.268009901,-20.0,-62.0,9.0
1904-01-01 00:09:29.125749901,E4_Acc,2024-06-27 11:33:40.299259901,-19.0,-61.0,9.0
1904-01-01 00:09:29.157009915,E4_Acc,2024-06-27 11:33:40.330519915,-20.0,-61.0,9.0
1904-01-01 00:09:29.188259915,E4_Acc,2024-06-27 11:33:40.361769915,-19.0,-61.0,9.0
1904-01-01 00:09:29.219509915,E4_Acc,2024-06-27 11:33:40.393019915,-20.0,-61.0,9.0
1904-01-01 00:09:29.250759915,E4_Acc,2024-06-27 11:33:40.424269915,-20.0,-61.0,9.0
1904-01-01 00:09:29.282009915,E4_Acc,2024-06-27 11:33:40.455519915,-19.0,-61.0,9.0
1904-01-01 00:09:29.313259915,E4_Acc,2024-06-27 11:33:40.486769915,-19.0,-61.0,9.0
1904-01-01 00:09:29.344509915,E4_Acc,2024-06-27 11:33:40.518019915,-19.0,-61.0,9.0
1904-01-01 00:09:29.375769928,E4_Acc,2024-06-27 11:33:40.549279928,-19.0,-62.0,9.0
1904-01-01 00:09:29.407019928,E4_Acc,2024-06-27 11:33:40.580529928,-19.0,-61.0,9.0
1904-01-01 00:09:29.438269928,E4_Acc,2024-06-27 11:33:40.611779928,-19.0,-61.0,9.0
1904-01-01 00:09:29.469519928,E4_Acc,2024-06-27 11:33:40.643029928,-19.0,-61.0,9.0
1904-01-01 00:09:29.500769928,E4_Acc,2024-06-27 11:33:40.674279928,-19.0,-61.0,9.0
1904-01-01 00:09:29.532019928,E4_Acc,2024-06-27 11:33:40.705529928,-20.0,-62.0,9.0
1904-01-01 00:09:29.563269928,E4_Acc,2024-06-27 11:33:40.736779928,-20.0,-61.0,9.0
1904-01-01 00:09:29.594529942,E4_Acc,2024-06-27 11:33:40.768039942,-20.0,-61.0,9.0
1904-01-01 00:09:29.625779942,E4_Acc,2024-06-27 11:33:40.799289942,-20.0,-61.0,9.0
1904-01-01 00:09:29.657029942,E4_Acc,2024-06-27 11:33:40.830539942,-19.0,-61.0,9.0
1904-01-01 00:09:29.688279942,E4_Acc,2024-06-27 11:33:40.861789942,-20.0,-61.0,9.0
1904-01-01 00:09:29.719529942,E4_Acc,2024-06-27 11:33:40.893039942,-20.0,-61.0,10.0
1904-01-01 00:09:29.750779942,E4_Acc,2024-06-27 11:33:40.924289942,-20.0,-62.0,9.0
1904-01-01 00:09:29.782039955,E4_Acc,2024-06-27 11:33:40.955549955,-20.0,-61.0,10.0
1904-01-01 00:09:29.813289955,E4_Acc,2024-06-27 11:33:40.986799955,-20.0,-61.0,10.0
1904-01-01 00:09:29.844539955,E4_Acc,2024-06-27 11:33:41.018049955,-20.0,-61.0,10.0
1904-01-01 00:09:29.875789955,E4_Acc,2024-06-27 11:33:41.049299955,-20.0,-61.0,10.0
1904-01-01 00:09:29.907039955,E4_Acc,2024-06-27 11:33:41.080549955,-20.0,-61.0,10.0
1904-01-01 00:09:29.938289955,E4_Acc,2024-06-27 11:33:41.111799955,-20.0,-61.0,9.0
1904-01-01 00:09:29.969539955,E4_Acc,2024-06-27 11:33:41.143049955,-20.0,-61.0,10.0
1904-01-01 00:09:30.000799969,E4_Acc,2024-06-27 11:33:41.174309969,-20.0,-61.0,10.0
1904-01-01 00:09:30.032049969,E4_Acc,2024-06-27 11:33:41.205559969,-20.0,-62.0,9.0
1904-01-01 00:09:30.063299969,E4_Acc,2024-06-27 11:33:41.236809969,-20.0,-61.0,9.0
1904-01-01 00:09:30.094549969,E4_Acc,2024-06-27 11:33:41.268059969,-20.0,-61.0,9.0
1904-01-01 00:09:30.125799969,E4_Acc,2024-06-27 11:33:41.299309969,-20.0,-60.0,9.0
1904-01-01 00:09:30.157049969,E4_Acc,2024-06-27 11:33:41.330559969,-20.0,-61.0,9.0
1904-01-01 00:09:30.188299969,E4_Acc,2024-06-27 11:33:41.361809969,-20.0,-61.0,10.0
1904-01-01 00:09:30.219559983,E4_Acc,2024-06-27 11:33:41.393069983,-20.0,-61.0,10.0
1904-01-01 00:09:30.250809983,E4_Acc,2024-06-27 11:33:41.424319983,-20.0,-61.0,10.0
1904-01-01 00:09:30.282059983,E4_Acc,2024-06-27 11:33:41.455569983,-20.0,-61.0,10.0
1904-01-01 00:09:30.313309983,E4_Acc,2024-06-27 11:33:41.486819983,-20.0,-61.0,10.0
1904-01-01 00:09:30.344559982,E4_Acc,2024-06-27 11:33:41.518069982,-20.0,-61.0,10.0
1904-01-01 00:09:30.375809983,E4_Acc,2024-06-27 11:33:41.549319983,-20.0,-61.0,10.0
1904-01-01 00:09:30.407059983,E4_Acc,2024-06-27 11:33:41.580569983,-20.0,-61.0,10.0
1904-01-01 00:09:30.438319996,E4_Acc,2024-06-27 11:33:41.611829996,-20.0,-61.0,10.0
1904-01-01 00:09:30.469569996,E4_Acc,2024-06-27 11:33:41.643079996,-20.0,-61.0,10.0
1904-01-01 00:09:30.500819996,E4_Acc,2024-06-27 11:33:41.674329996,-20.0,-61.0,10.0
1904-01-01 00:09:30.532069996,E4_Acc,2024-06-27 11:33:41.705579996,-21.0,-61.0,10.0
1904-01-01 00:09:30.563319996,E4_Acc,2024-06-27 11:33:41.736829996,-21.0,-61.0,11.0
1904-01-01 00:09:30.594569996,E4_Acc,2024-06-27 11:33:41.768079996,-21.0,-61.0,10.0
1904-01-01 00:09:30.625819996,E4_Acc,2024-06-27 11:33:41.799329996,-20.0,-61.0,10.0
1904-01-01 00:09:30.657080010,E4_Acc,2024-06-27 11:33:41.830590010,-20.0,-61.0,10.0
1904-01-01 00:09:30.688330010,E4_Acc,2024-06-27 11:33:41.861840010,-20.0,-61.0,10.0
