Seconds,Stream,E4_Seconds,AccX,AccY,AccZ
1904-01-01 00:24:33.089984092,E4_Acc,2024-06-28 11:28:33.847680092,-59.0,-18.0,17.0
1904-01-01 00:24:33.121234092,E4_Acc,2024-06-28 11:28:33.878930092,-59.0,-18.0,17.0
1904-01-01 00:24:33.152484092,E4_Acc,2024-06-28 11:28:33.910180092,-60.0,-18.0,17.0
1904-01-01 00:24:33.183734092,E4_Acc,2024-06-28 11:28:33.941430092,-60.0,-18.0,17.0
1904-01-01 00:24:33.214984092,E4_Acc,2024-06-28 11:28:33.972680092,-60.0,-17.0,17.0
1904-01-01 00:24:33.246234091,E4_Acc,2024-06-28 11:28:34.003930091,-59.0,-16.0,17.0
1904-01-01 00:24:33.277484092,E4_Acc,2024-06-28 11:28:34.035180092,-60.0,-16.0,17.0
1904-01-01 00:24:33.308744105,E4_Acc,2024-06-28 11:28:34.066440105,-60.0,-17.0,17.0
1904-01-01 00:24:33.339994105,E4_Acc,2024-06-28 11:28:34.097690105,-60.0,-17.0,17.0
1904-01-01 00:24:33.371244105,E4_Acc,2024-06-28 11:28:34.128940105,-59.0,-17.0,17.0
1904-01-01 00:24:33.402494105,E4_Acc,2024-06-28 11:28:34.160190105,-59.0,-17.0,17.0
1904-01-01 00:24:33.433744105,E4_Acc,2024-06-28 11:28:34.191440105,-59.0,-18.0,17.0
1904-01-01 00:24:33.464994105,E4_Acc,2024-06-28 11:28:34.222690105,-60.0,-18.0,17.0
1904-01-01 00:24:33.496244105,E4_Acc,2024-06-28 11:28:34.253940105,-59.0,-17.0,17.0
1904-01-01 00:24:33.527504119,E4_Acc,2024-06-28 11:28:34.285200119,-59.0,-17.0,17.0
1904-01-01 00:24:33.558754119,E4_Acc,2024-06-28 11:28:34.316450119,-60.0,-17.0,17.0
1904-01-01 00:24:33.590004119,E4_Acc,2024-06-28 11:28:34.347700119,-60.0,-17.0,17.0
1904-01-01 00:24:33.621254119,E4_Acc,2024-06-28 11:28:34.378950119,-60.0,-17.0,17.0
1904-01-01 00:24:33.652504119,E4_Acc,2024-06-28 11:28:34.410200119,-60.0,-17.0,17.0
1904-01-01 00:24:33.683754119,E4_Acc,2024-06-28 11:28:34.441450119,-59.0,-17.0,17.0
1904-01-01 00:24:33.715004119,E4_Acc,2024-06-28 11:28:34.472700119,-60.0,-17.0,17.0
1904-01-01 00:24:33.746263893,E4_Acc,2024-06-28 11:28:34.503959893,-60.0,-17.0,17.0
1904-01-01 00:24:33.777513893,E4_Acc,2024-06-28 11:28:34.535209893,-60.0,-17.0,17.0
1904-01-01 00:24:33.808763894,E4_Acc,2024-06-28 11:28:34.566459894,-59.0,-17.0,17.0
1904-01-01 00:24:33.840013894,E4_Acc,2024-06-28 11:28:34.597709894,-59.0,-17.0,17.0
1904-01-01 00:24:33.871263894,E4_Acc,2024-06-28 11:28:34.628959894,-60.0,-17.0,17.0
1904-01-01 00:24:33.902513894,E4_Acc,2024-06-28 11:28:34.660209894,-60.0,-17.0,17.0
1904-01-01 00:24:33.933763894,E4_Acc,2024-06-28 11:28:34.691459894,-60.0,-17.0,17.0
1904-01-01 00:24:33.965023908,E4_Acc,2024-06-28 11:28:34.722719908,-59.0,-17.0,17.0
1904-01-01 00:24:33.996273908,E4_Acc,2024-06-28 11:28:34.753969908,-58.0,-16.0,17.0
1904-01-01 00:24:34.027523908,E4_Acc,2024-06-28 11:28:34.785219908,-60.0,-17.0,17.0
1904-01-01 00:24:34.058773908,E4_Acc,2024-06-28 11:28:34.816469908,-60.0,-17.0,17.0
1904-01-01 00:24:34.090023908,E4_Acc,2024-06-28 11:28:34.847719908,-61.0,-17.0,17.0
1904-01-01 00:24:34.121273908,E4_Acc,2024-06-28 11:28:34.878969908,-59.0,-16.0,17.0
1904-01-01 00:24:34.152523908,E4_Acc,2024-06-28 11:28:34.910219908,-59.0,-16.0,18.0
1904-01-01 00:24:34.183783921,E4_Acc,2024-06-28 11:28:34.941479921,-59.0,-17.0,17.0
1904-01-01 00:24:34.215033921,E4_Acc,2024-06-28 11:28:34.972729921,-59.0,-17.0,17.0
1904-01-01 00:24:34.246283921,E4_Acc,2024-06-28 11:28:35.003979921,-59.0,-17.0,17.0
1904-01-01 00:24:34.277533921,E4_Acc,2024-06-28 11:28:35.035229921,-59.0,-17.0,17.0
1904-01-01 00:24:34.308783921,E4_Acc,2024-06-28 11:28:35.066479921,-59.0,-17.0,17.0
1904-01-01 00:24:34.340033921,E4_Acc,2024-06-28 11:28:35.097729921,-60.0,-17.0,17.0
1904-01-01 00:24:34.371283921,E4_Acc,2024-06-28 11:28:35.128979921,-60.0,-17.0,17.0
1904-01-01 00:24:34.402543935,E4_Acc,2024-06-28 11:28:35.160239935,-59.0,-17.0,17.0
1904-01-01 00:24:34.433793935,E4_Acc,2024-06-28 11:28:35.191489935,-59.0,-17.0,17.0
1904-01-01 00:24:34.465043935,E4_Acc,2024-06-28 11:28:35.222739935,-60.0,-17.0,17.0
1904-01-01 00:24:34.496293935,E4_Acc,2024-06-28 11:28:35.253989935,-60.0,-18.0,16.0
1904-01-01 00:24:34.527543935,E4_Acc,2024-06-28 11:28:35.285239935,-60.0,-18.0,17.0
1904-01-01 00:24:34.558793935,E4_Acc,2024-06-28 11:28:35.316489935,-59.0,-17.0,17.0
1904-01-01 00:24:34.590043935,E4_Acc,2024-06-28 11:28:35.347739935,-59.0,-17.0,17.0
1904-01-01 00:24:34.621303949,E4_Acc,2024-06-28 11:28:35.378999949,-59.0,-17.0,17.0
1904-01-01 00:24:34.652553949,E4_Acc,2024-06-28 11:28:35.410249949,-60.0,-17.0,17.0
1904-01-01 00:24:34.683803949,E4_Acc,2024-06-28 11:28:35.441499949,-60.0,-17.0,17.0
1904-01-01 00:24:34.715053949,E4_Acc,2024-06-28 11:28:35.472749949,-60.0,-17.0,17.0
1904-01-01 00:24:34.746303949,E4_Acc,2024-06-28 11:28:35.503999949,-60.0,-17.0,17.0
1904-01-01 00:24:34.777553949,E4_Acc,2024-06-28 11:28:35.535249949,-59.0,-17.0,17.0
1904-01-01 00:24:34.808813962,E4_Acc,2024-06-28 11:28:35.566509962,-60.0,-17.0,16.0
1904-01-01 00:24:34.840063962,E4_Acc,2024-06-28 11:28:35.597759962,-60.0,-17.0,17.0
1904-01-01 00:24:34.871313962,E4_Acc,2024-06-28 11:28:35.629009962,-60.0,-17.0,17.0
1904-01-01 00:24:34.902563962,E4_Acc,2024-06-28 11:28:35.660259962,-60.0,-17.0,17.0
1904-01-01 00:24:34.933813962,E4_Acc,2024-06-28 11:28:35.691509962,-59.0,-17.0,17.0
1904-01-01 00:24:34.965063962,E4_Acc,2024-06-28 11:28:35.722759962,-59.0,-17.0,17.0
1904-01-01 00:24:34.996313962,E4_Acc,2024-06-28 11:28:35.754009962,-60.0,-17.0,17.0
1904-01-01 00:24:35.027573976,E4_Acc,2024-06-28 11:28:35.785269976,-60.0,-18.0,17.0
1904-01-01 00:24:35.058823976,E4_Acc,2024-06-28 11:28:35.816519976,-59.0,-17.0,17.0
1904-01-01 00:24:35.090073976,E4_Acc,2024-06-28 11:28:35.847769976,-60.0,-18.0,17.0
1904-01-01 00:24:35.121323976,E4_Acc,2024-06-28 11:28:35.879019976,-59.0,-18.0,17.0
1904-01-01 00:24:35.152573976,E4_Acc,2024-06-28 11:28:35.910269976,-59.0,-18.0,16.0
1904-01-01 00:24:35.183823976,E4_Acc,2024-06-28 11:28:35.941519976,-59.0,-17.0,16.0
1904-01-01 00:24:35.215073976,E4_Acc,2024-06-28 11:28:35.972769976,-60.0,-17.0,16.0
1904-01-01 00:24:35.246333989,E4_Acc,2024-06-28 11:28:36.004029989,-60.0,-18.0,16.0
1904-01-01 00:24:35.277583989,E4_Acc,2024-06-28 11:28:36.035279989,-60.0,-17.0,16.0
1904-01-01 00:24:35.308833989,E4_Acc,2024-06-28 11:28:36.066529989,-59.0,-17.0,16.0
1904-01-01 00:24:35.340083989,E4_Acc,2024-06-28 11:28:36.097779989,-59.0,-17.0,16.0
1904-01-01 00:24:35.371333989,E4_Acc,2024-06-28 11:28:36.129029989,-60.0,-17.0,16.0
1904-01-01 00:24:35.402583989,E4_Acc,2024-06-28 11:28:36.160279989,-60.0,-17.0,16.0
1904-01-01 00:24:35.433833989,E4_Acc,2024-06-28 11:28:36.191529989,-60.0,-17.0,16.0
1904-01-01 00:24:35.465094003,E4_Acc,2024-06-28 11:28:36.222790003,-60.0,-17.0,16.0
1904-01-01 00:24:35.496344003,E4_Acc,2024-06-28 11:28:36.254040003,-60.0,-17.0,16.0
1904-01-01 00:24:35.527594003,E4_Acc,2024-06-28 11:28:36.285290003,-60.0,-18.0,16.0
1904-01-01 00:24:35.558844003,E4_Acc,2024-06-28 11:28:36.316540003,-59.0,-17.0,16.0
1904-01-01 00:24:35.590094003,E4_Acc,2024-06-28 11:28:36.347790003,-60.0,-17.0,16.0
1904-01-01 00:24:35.621344003,E4_Acc,2024-06-28 11:28:36.379040003,-61.0,-18.0,16.0
1904-01-01 00:24:35.652594003,E4_Acc,2024-06-28 11:28:36.410290003,-61.0,-18.0,16.0
1904-01-01 00:24:35.683854016,E4_Acc,2024-06-28 11:28:36.441550016,-59.0,-17.0,16.0
1904-01-01 00:24:35.715104016,E4_Acc,2024-06-28 11:28:36.472800016,-60.0,-17.0,16.0
1904-01-01 00:24:35.746354016,E4_Acc,2024-06-28 11:28:36.504050016,-60.0,-18.0,16.0
1904-01-01 00:24:35.777604016,E4_Acc,2024-06-28 11:28:36.535300016,-60.0,-18.0,16.0
1904-01-01 00:24:35.808854016,E4_Acc,2024-06-28 11:28:36.566550016,-60.0,-17.0,16.0
1904-01-01 00:24:35.840104016,E4_Acc,2024-06-28 11:28:36.597800016,-59.0,-17.0,16.0
1904-01-01 00:24:35.871354016,E4_Acc,2024-06-28 11:28:36.629050016,-60.0,-18.0,17.0
1904-01-01 00:24:35.902614030,E4_Acc,2024-06-28 11:28:36.660310030,-60.0,-18.0,17.0
1904-01-01 00:24:35.933864030,E4_Acc,2024-06-28 11:28:36.691560030,-59.0,-17.0,17.0
1904-01-01 00:24:35.965114030,E4_Acc,2024-06-28 11:28:36.722810030,-59.0,-17.0,17.0
1904-01-01 00:24:35.996364030,E4_Acc,2024-06-28 11:28:36.754060030,-60.0,-18.0,16.0
1904-01-01 00:24:36.027614030,E4_Acc,2024-06-28 11:28:36.785310030,-60.0,-17.0,16.0
1904-01-01 00:24:36.058864030,E4_Acc,2024-06-28 11:28:36.816560030,-59.0,-17.0,17.0
1904-01-01 00:24:36.090114030,E4_Acc,2024-06-28 11:28:36.847810030,-60.0,-17.0,17.0
1904-01-01 00:24:36.121374044,E4_Acc,2024-06-28 11:28:36.879070044,-60.0,-18.0,17.0
1904-01-01 00:24:36.152624044,E4_Acc,2024-06-28 11:28:36.910320044,-60.0,-17.0,17.0
1904-01-01 00:24:36.183874044,E4_Acc,2024-06-28 11:28:36.941570044,-59.0,-17.0,17.0
1904-01-01 00:24:36.215124044,E4_Acc,2024-06-28 11:28:36.972820044,-59.0,-17.0,17.0
1904-01-01 00:24:36.246374044,E4_Acc,2024-06-28 11:28:37.004070044,-60.0,-17.0,17.0
1904-01-01 00:24:36.277624044,E4_Acc,2024-06-28 11:28:37.035320044,-59.0,-17.0,17.0
1904-01-01 00:24:36.308874043,E4_Acc,2024-06-28 11:28:37.066570043,-59.0,-17.0,17.0
1904-01-01 00:24:36.340134057,E4_Acc,2024-06-28 11:28:37.097830057,-59.0,-17.0,17.0
1904-01-01 00:24:36.371384057,E4_Acc,2024-06-28 11:28:37.129080057,-60.0,-17.0,17.0
1904-01-01 00:24:36.402634057,E4_Acc,2024-06-28 11:28:37.160330057,-60.0,-18.0,17.0
1904-01-01 00:24:36.433884057,E4_Acc,2024-06-28 11:28:37.191580057,-59.0,-17.0,17.0
1904-01-01 00:24:36.465134057,E4_Acc,2024-06-28 11:28:37.222830057,-59.0,-17.0,17.0
1904-01-01 00:24:36.496384057,E4_Acc,2024-06-28 11:28:37.254080057,-59.0,-18.0,17.0
1904-01-01 00:24:36.527634057,E4_Acc,2024-06-28 11:28:37.285330057,-59.0,-18.0,17.0
1904-01-01 00:24:36.558894071,E4_Acc,2024-06-28 11:28:37.316590071,-59.0,-18.0,17.0
1904-01-01 00:24:36.590144071,E4_Acc,2024-06-28 11:28:37.347840071,-59.0,-18.0,17.0
1904-01-01 00:24:36.621394071,E4_Acc,2024-06-28 11:28:37.379090071,-60.0,-18.0,17.0
1904-01-01 00:24:36.652644071,E4_Acc,2024-06-28 11:28:37.410340071,-60.0,-18.0,17.0
1904-01-01 00:24:36.683894071,E4_Acc,2024-06-28 11:28:37.441590071,-60.0,-18.0,17.0
1904-01-01 00:24:36.715144071,E4_Acc,2024-06-28 11:28:37.472840071,-59.0,-18.0,17.0
1904-01-01 00:24:36.746394071,E4_Acc,2024-06-28 11:28:37.504090071,-59.0,-18.0,16.0
1904-01-01 00:24:36.777654083,E4_Acc,2024-06-28 11:28:37.535350083,-60.0,-18.0,16.0
1904-01-01 00:24:36.808904084,E4_Acc,2024-06-28 11:28:37.566600084,-61.0,-19.0,16.0
1904-01-01 00:24:36.840154084,E4_Acc,2024-06-28 11:28:37.597850084,-60.0,-18.0,16.0
1904-01-01 00:24:36.871404084,E4_Acc,2024-06-28 11:28:37.629100084,-59.0,-18.0,16.0
1904-01-01 00:24:36.902654084,E4_Acc,2024-06-28 11:28:37.660350084,-59.0,-19.0,16.0
1904-01-01 00:24:36.933904084,E4_Acc,2024-06-28 11:28:37.691600084,-60.0,-19.0,16.0
1904-01-01 00:24:36.965164098,E4_Acc,2024-06-28 11:28:37.722860098,-60.0,-19.0,16.0
1904-01-01 00:24:36.996414098,E4_Acc,2024-06-28 11:28:37.754110098,-60.0,-18.0,16.0
1904-01-01 00:24:37.027664098,E4_Acc,2024-06-28 11:28:37.785360098,-60.0,-19.0,16.0
1904-01-01 00:24:37.058914098,E4_Acc,2024-06-28 11:28:37.816610098,-59.0,-18.0,16.0
1904-01-01 00:24:37.090164098,E4_Acc,2024-06-28 11:28:37.847860098,-59.0,-18.0,16.0
1904-01-01 00:24:37.121414098,E4_Acc,2024-06-28 11:28:37.879110098,-59.0,-18.0,16.0
1904-01-01 00:24:37.152664098,E4_Acc,2024-06-28 11:28:37.910360098,-60.0,-18.0,16.0
1904-01-01 00:24:37.183924111,E4_Acc,2024-06-28 11:28:37.941620111,-60.0,-18.0,16.0
1904-01-01 00:24:37.215174111,E4_Acc,2024-06-28 11:28:37.972870111,-60.0,-18.0,16.0
1904-01-01 00:24:37.246424111,E4_Acc,2024-06-28 11:28:38.004120111,-59.0,-17.0,16.0
1904-01-01 00:24:37.277674111,E4_Acc,2024-06-28 11:28:38.035370111,-60.0,-18.0,16.0
1904-01-01 00:24:37.308924110,E4_Acc,2024-06-28 11:28:38.066620110,-59.0,-18.0,16.0
1904-01-01 00:24:37.340174111,E4_Acc,2024-06-28 11:28:38.097870111,-59.0,-18.0,16.0
1904-01-01 00:24:37.371424111,E4_Acc,2024-06-28 11:28:38.129120111,-59.0,-18.0,16.0
1904-01-01 00:24:37.402683887,E4_Acc,2024-06-28 11:28:38.160379887,-60.0,-18.0,16.0
1904-01-01 00:24:37.433933887,E4_Acc,2024-06-28 11:28:38.191629887,-60.0,-18.0,16.0
1904-01-01 00:24:37.465183887,E4_Acc,2024-06-28 11:28:38.222879887,-60.0,-18.0,16.0
1904-01-01 00:24:37.496433887,E4_Acc,2024-06-28 11:28:38.254129887,-59.0,-18.0,16.0
1904-01-01 00:24:37.527683887,E4_Acc,2024-06-28 11:28:38.285379887,-59.0,-17.0,16.0
1904-01-01 00:24:37.558933887,E4_Acc,2024-06-28 11:28:38.316629887,-60.0,-18.0,16.0
1904-01-01 00:24:37.590183887,E4_Acc,2024-06-28 11:28:38.347879887,-60.0,-18.0,16.0
1904-01-01 00:24:37.621443900,E4_Acc,2024-06-28 11:28:38.379139900,-60.0,-18.0,16.0
1904-01-01 00:24:37.652693900,E4_Acc,2024-06-28 11:28:38.410389900,-58.0,-18.0,17.0
1904-01-01 00:24:37.683943900,E4_Acc,2024-06-28 11:28:38.441639900,-60.0,-18.0,17.0
1904-01-01 00:24:37.715193900,E4_Acc,2024-06-28 11:28:38.472889900,-60.0,-18.0,16.0
1904-01-01 00:24:37.746443900,E4_Acc,2024-06-28 11:28:38.504139900,-60.0,-18.0,16.0
1904-01-01 00:24:37.777693900,E4_Acc,2024-06-28 11:28:38.535389900,-59.0,-18.0,17.0
1904-01-01 00:24:37.808943900,E4_Acc,2024-06-28 11:28:38.566639900,-59.0,-18.0,16.0
1904-01-01 00:24:37.840203914,E4_Acc,2024-06-28 11:28:38.597899914,-60.0,-18.0,16.0
1904-01-01 00:24:37.871453914,E4_Acc,2024-06-28 11:28:38.629149914,-59.0,-18.0,17.0
1904-01-01 00:24:37.902703914,E4_Acc,2024-06-28 11:28:38.660399914,-60.0,-17.0,16.0
1904-01-01 00:24:37.933953914,E4_Acc,2024-06-28 11:28:38.691649914,-60.0,-18.0,16.0
1904-01-01 00:24:37.965203914,E4_Acc,2024-06-28 11:28:38.722899914,-60.0,-18.0,16.0
1904-01-01 00:24:37.996453914,E4_Acc,2024-06-28 11:28:38.754149914,-60.0,-17.0,16.0
1904-01-01 00:24:38.027703914,E4_Acc,2024-06-28 11:28:38.785399914,-59.0,-17.0,16.0
1904-01-01 00:24:38.058963927,E4_Acc,2024-06-28 11:28:38.816659927,-60.0,-18.0,16.0
1904-01-01 00:24:38.090213927,E4_Acc,2024-06-28 11:28:38.847909927,-58.0,-18.0,16.0
1904-01-01 00:24:38.121463927,E4_Acc,2024-06-28 11:28:38.879159927,-59.0,-17.0,16.0
1904-01-01 00:24:38.152713927,E4_Acc,2024-06-28 11:28:38.910409927,-60.0,-18.0,16.0
1904-01-01 00:24:38.183963927,E4_Acc,2024-06-28 11:28:38.941659927,-60.0,-18.0,16.0
1904-01-01 00:24:38.215213927,E4_Acc,2024-06-28 11:28:38.972909927,-60.0,-18.0,17.0
1904-01-01 00:24:38.246463927,E4_Acc,2024-06-28 11:28:39.004159927,-59.0,-17.0,17.0
1904-01-01 00:24:38.277723941,E4_Acc,2024-06-28 11:28:39.035419941,-60.0,-18.0,16.0
1904-01-01 00:24:38.308973941,E4_Acc,2024-06-28 11:28:39.066669941,-60.0,-18.0,16.0
1904-01-01 00:24:38.340223941,E4_Acc,2024-06-28 11:28:39.097919941,-60.0,-18.0,16.0
1904-01-01 00:24:38.371473941,E4_Acc,2024-06-28 11:28:39.129169941,-59.0,-18.0,16.0
1904-01-01 00:24:38.402723941,E4_Acc,2024-06-28 11:28:39.160419941,-59.0,-18.0,16.0
1904-01-01 00:24:38.433973941,E4_Acc,2024-06-28 11:28:39.191669941,-59.0,-18.0,16.0
1904-01-01 00:24:38.465223941,E4_Acc,2024-06-28 11:28:39.222919941,-60.0,-18.0,16.0
1904-01-01 00:24:38.496483955,E4_Acc,2024-06-28 11:28:39.254179955,-60.0,-18.0,16.0
1904-01-01 00:24:38.527733955,E4_Acc,2024-06-28 11:28:39.285429955,-61.0,-18.0,16.0
1904-01-01 00:24:38.558983955,E4_Acc,2024-06-28 11:28:39.316679955,-59.0,-17.0,17.0
1904-01-01 00:24:38.590233955,E4_Acc,2024-06-28 11:28:39.347929955,-59.0,-18.0,17.0
1904-01-01 00:24:38.621483955,E4_Acc,2024-06-28 11:28:39.379179955,-59.0,-18.0,16.0
1904-01-01 00:24:38.652733955,E4_Acc,2024-06-28 11:28:39.410429955,-59.0,-18.0,16.0
1904-01-01 00:24:38.683983955,E4_Acc,2024-06-28 11:28:39.441679955,-59.0,-18.0,16.0
1904-01-01 00:24:38.715243968,E4_Acc,2024-06-28 11:28:39.472939968,-60.0,-18.0,17.0
1904-01-01 00:24:38.746493968,E4_Acc,2024-06-28 11:28:39.504189968,-60.0,-18.0,17.0
1904-01-01 00:24:38.777743968,E4_Acc,2024-06-28 11:28:39.535439968,-60.0,-17.0,17.0
1904-01-01 00:24:38.808993968,E4_Acc,2024-06-28 11:28:39.566689968,-59.0,-17.0,17.0
1904-01-01 00:24:38.840243968,E4_Acc,2024-06-28 11:28:39.597939968,-60.0,-18.0,16.0
1904-01-01 00:24:38.871493968,E4_Acc,2024-06-28 11:28:39.629189968,-60.0,-18.0,17.0
1904-01-01 00:24:38.902743968,E4_Acc,2024-06-28 11:28:39.660439968,-59.0,-17.0,17.0
1904-01-01 00:24:38.934003982,E4_Acc,2024-06-28 11:28:39.691699982,-59.0,-17.0,17.0
1904-01-01 00:24:38.965253982,E4_Acc,2024-06-28 11:28:39.722949982,-59.0,-17.0,17.0
1904-01-01 00:24:38.996503982,E4_Acc,2024-06-28 11:28:39.754199982,-61.0,-18.0,17.0
1904-01-01 00:24:39.027753982,E4_Acc,2024-06-28 11:28:39.785449982,-59.0,-18.0,17.0
1904-01-01 00:24:39.059003982,E4_Acc,2024-06-28 11:28:39.816699982,-59.0,-17.0,17.0
1904-01-01 00:24:39.090253982,E4_Acc,2024-06-28 11:28:39.847949982,-59.0,-17.0,17.0
1904-01-01 00:24:39.121503982,E4_Acc,2024-06-28 11:28:39.879199982,-60.0,-18.0,16.0
1904-01-01 00:24:39.152763995,E4_Acc,2024-06-28 11:28:39.910459995,-60.0,-18.0,17.0
1904-01-01 00:24:39.184013995,E4_Acc,2024-06-28 11:28:39.941709995,-59.0,-18.0,17.0
1904-01-01 00:24:39.215263995,E4_Acc,2024-06-28 11:28:39.972959995,-59.0,-18.0,17.0
1904-01-01 00:24:39.246513995,E4_Acc,2024-06-28 11:28:40.004209995,-59.0,-18.0,17.0
1904-01-01 00:24:39.277763995,E4_Acc,2024-06-28 11:28:40.035459995,-59.0,-18.0,17.0
1904-01-01 00:24:39.309013994,E4_Acc,2024-06-28 11:28:40.066709994,-59.0,-18.0,17.0
1904-01-01 00:24:39.340274009,E4_Acc,2024-06-28 11:28:40.097970009,-60.0,-18.0,16.0
1904-01-01 00:24:39.371524009,E4_Acc,2024-06-28 11:28:40.129220009,-60.0,-17.0,17.0
1904-01-01 00:24:39.402774009,E4_Acc,2024-06-28 11:28:40.160470009,-60.0,-18.0,17.0
1904-01-01 00:24:39.434024009,E4_Acc,2024-06-28 11:28:40.191720009,-59.0,-18.0,17.0
1904-01-01 00:24:39.465274009,E4_Acc,2024-06-28 11:28:40.222970009,-59.0,-18.0,17.0
1904-01-01 00:24:39.496524009,E4_Acc,2024-06-28 11:28:40.254220009,-59.0,-17.0,17.0
1904-01-01 00:24:39.527774009,E4_Acc,2024-06-28 11:28:40.285470009,-60.0,-17.0,17.0
1904-01-01 00:24:39.559034022,E4_Acc,2024-06-28 11:28:40.316730022,-60.0,-17.0,16.0
1904-01-01 00:24:39.590284022,E4_Acc,2024-06-28 11:28:40.347980022,-59.0,-17.0,17.0
1904-01-01 00:24:39.621534022,E4_Acc,2024-06-28 11:28:40.379230022,-60.0,-18.0,16.0
1904-01-01 00:24:39.652784022,E4_Acc,2024-06-28 11:28:40.410480022,-60.0,-18.0,16.0
1904-01-01 00:24:39.684034022,E4_Acc,2024-06-28 11:28:40.441730022,-60.0,-18.0,17.0
1904-01-01 00:24:39.715284022,E4_Acc,2024-06-28 11:28:40.472980022,-60.0,-18.0,16.0
1904-01-01 00:24:39.746534022,E4_Acc,2024-06-28 11:28:40.504230022,-59.0,-18.0,17.0
1904-01-01 00:24:39.777794036,E4_Acc,2024-06-28 11:28:40.535490036,-59.0,-18.0,16.0
1904-01-01 00:24:39.809044036,E4_Acc,2024-06-28 11:28:40.566740036,-60.0,-18.0,16.0
1904-01-01 00:24:39.840294036,E4_Acc,2024-06-28 11:28:40.597990036,-59.0,-18.0,17.0
1904-01-01 00:24:39.871544036,E4_Acc,2024-06-28 11:28:40.629240036,-60.0,-17.0,17.0
1904-01-01 00:24:39.902794036,E4_Acc,2024-06-28 11:28:40.660490036,-60.0,-17.0,17.0
1904-01-01 00:24:39.934044036,E4_Acc,2024-06-28 11:28:40.691740036,-60.0,-18.0,17.0
1904-01-01 00:24:39.965294036,E4_Acc,2024-06-28 11:28:40.722990036,-60.0,-18.0,16.0
1904-01-01 00:24:39.996554050,E4_Acc,2024-06-28 11:28:40.754250050,-59.0,-17.0,17.0
1904-01-01 00:24:40.027804050,E4_Acc,2024-06-28 11:28:40.785500050,-59.0,-17.0,17.0
1904-01-01 00:24:40.059054050,E4_Acc,2024-06-28 11:28:40.816750050,-60.0,-18.0,17.0
1904-01-01 00:24:40.090304050,E4_Acc,2024-06-28 11:28:40.848000050,-60.0,-18.0,17.0
1904-01-01 00:24:40.121554050,E4_Acc,2024-06-28 11:28:40.879250050,-59.0,-18.0,17.0
1904-01-01 00:24:40.152804050,E4_Acc,2024-06-28 11:28:40.910500050,-59.0,-18.0,17.0
1904-01-01 00:24:40.184054050,E4_Acc,2024-06-28 11:28:40.941750050,-60.0,-18.0,17.0
1904-01-01 00:24:40.215314063,E4_Acc,2024-06-28 11:28:40.973010063,-59.0,-17.0,17.0
1904-01-01 00:24:40.246564063,E4_Acc,2024-06-28 11:28:41.004260063,-59.0,-17.0,17.0
1904-01-01 00:24:40.277814063,E4_Acc,2024-06-28 11:28:41.035510063,-59.0,-17.0,17.0
1904-01-01 00:24:40.309064062,E4_Acc,2024-06-28 11:28:41.066760062,-59.0,-17.0,17.0
1904-01-01 00:24:40.340314063,E4_Acc,2024-06-28 11:28:41.098010063,-60.0,-18.0,17.0
1904-01-01 00:24:40.371564063,E4_Acc,2024-06-28 11:28:41.129260063,-59.0,-18.0,17.0
1904-01-01 00:24:40.402814063,E4_Acc,2024-06-28 11:28:41.160510063,-59.0,-18.0,17.0
1904-01-01 00:24:40.434074077,E4_Acc,2024-06-28 11:28:41.191770077,-59.0,-18.0,17.0
1904-01-01 00:24:40.465324077,E4_Acc,2024-06-28 11:28:41.223020077,-60.0,-18.0,17.0
1904-01-01 00:24:40.496574076,E4_Acc,2024-06-28 11:28:41.254270076,-59.0,-18.0,17.0
1904-01-01 00:24:40.527824077,E4_Acc,2024-06-28 11:28:41.285520077,-59.0,-18.0,17.0
1904-01-01 00:24:40.559074077,E4_Acc,2024-06-28 11:28:41.316770077,-59.0,-17.0,17.0
1904-01-01 00:24:40.590324077,E4_Acc,2024-06-28 11:28:41.348020077,-60.0,-18.0,17.0
1904-01-01 00:24:40.621574077,E4_Acc,2024-06-28 11:28:41.379270077,-60.0,-19.0,17.0
1904-01-01 00:24:40.652834090,E4_Acc,2024-06-28 11:28:41.410530090,-59.0,-18.0,17.0
1904-01-01 00:24:40.684084090,E4_Acc,2024-06-28 11:28:41.441780090,-58.0,-18.0,17.0
1904-01-01 00:24:40.715334090,E4_Acc,2024-06-28 11:28:41.473030090,-59.0,-18.0,17.0
1904-01-01 00:24:40.746584089,E4_Acc,2024-06-28 11:28:41.504280089,-60.0,-19.0,16.0
1904-01-01 00:24:40.777834089,E4_Acc,2024-06-28 11:28:41.535530089,-59.0,-18.0,16.0
1904-01-01 00:24:40.809084090,E4_Acc,2024-06-28 11:28:41.566780090,-59.0,-17.0,17.0
1904-01-01 00:24:40.840334090,E4_Acc,2024-06-28 11:28:41.598030090,-60.0,-18.0,17.0
1904-01-01 00:24:40.871594104,E4_Acc,2024-06-28 11:28:41.629290104,-61.0,-18.0,17.0
1904-01-01 00:24:40.902844104,E4_Acc,2024-06-28 11:28:41.660540104,-60.0,-18.0,17.0
1904-01-01 00:24:40.934094104,E4_Acc,2024-06-28 11:28:41.691790104,-59.0,-17.0,16.0
1904-01-01 00:24:40.965344104,E4_Acc,2024-06-28 11:28:41.723040104,-59.0,-17.0,16.0
1904-01-01 00:24:40.996594104,E4_Acc,2024-06-28 11:28:41.754290104,-60.0,-17.0,17.0
1904-01-01 00:24:41.027844104,E4_Acc,2024-06-28 11:28:41.785540104,-60.0,-17.0,17.0
1904-01-01 00:24:41.059094104,E4_Acc,2024-06-28 11:28:41.816790104,-60.0,-18.0,17.0
1904-01-01 00:24:41.090354117,E4_Acc,2024-06-28 11:28:41.848050117,-60.0,-18.0,17.0
1904-01-01 00:24:41.121604117,E4_Acc,2024-06-28 11:28:41.879300117,-59.0,-17.0,17.0
1904-01-01 00:24:41.152854117,E4_Acc,2024-06-28 11:28:41.910550117,-60.0,-18.0,17.0
1904-01-01 00:24:41.184104117,E4_Acc,2024-06-28 11:28:41.941800117,-59.0,-18.0,17.0
1904-01-01 00:24:41.215354117,E4_Acc,2024-06-28 11:28:41.973050117,-60.0,-17.0,16.0
1904-01-01 00:24:41.246604117,E4_Acc,2024-06-28 11:28:42.004300117,-60.0,-18.0,17.0
1904-01-01 00:24:41.277854117,E4_Acc,2024-06-28 11:28:42.035550117,-60.0,-17.0,17.0
1904-01-01 00:24:41.309113892,E4_Acc,2024-06-28 11:28:42.066809892,-59.0,-17.0,17.0
1904-01-01 00:24:41.340363893,E4_Acc,2024-06-28 11:28:42.098059893,-59.0,-18.0,17.0
1904-01-01 00:24:41.371613893,E4_Acc,2024-06-28 11:28:42.129309893,-59.0,-18.0,17.0
1904-01-01 00:24:41.402863893,E4_Acc,2024-06-28 11:28:42.160559893,-60.0,-17.0,17.0
1904-01-01 00:24:41.434113893,E4_Acc,2024-06-28 11:28:42.191809893,-60.0,-18.0,17.0
1904-01-01 00:24:41.465363893,E4_Acc,2024-06-28 11:28:42.223059893,-60.0,-17.0,17.0
1904-01-01 00:24:41.496613893,E4_Acc,2024-06-28 11:28:42.254309893,-59.0,-17.0,17.0
1904-01-01 00:24:41.527873906,E4_Acc,2024-06-28 11:28:42.285569906,-59.0,-17.0,17.0
1904-01-01 00:24:41.559123906,E4_Acc,2024-06-28 11:28:42.316819906,-60.0,-17.0,17.0
1904-01-01 00:24:41.590373906,E4_Acc,2024-06-28 11:28:42.348069906,-60.0,-18.0,16.0
1904-01-01 00:24:41.621623906,E4_Acc,2024-06-28 11:28:42.379319906,-59.0,-18.0,17.0
1904-01-01 00:24:41.652873906,E4_Acc,2024-06-28 11:28:42.410569906,-60.0,-18.0,17.0
1904-01-01 00:24:41.684123906,E4_Acc,2024-06-28 11:28:42.441819906,-58.0,-18.0,17.0
1904-01-01 00:24:41.715373906,E4_Acc,2024-06-28 11:28:42.473069906,-60.0,-18.0,17.0
1904-01-01 00:24:41.746633920,E4_Acc,2024-06-28 11:28:42.504329920,-60.0,-18.0,16.0
1904-01-01 00:24:41.777883920,E4_Acc,2024-06-28 11:28:42.535579920,-60.0,-17.0,16.0
1904-01-01 00:24:41.809133920,E4_Acc,2024-06-28 11:28:42.566829920,-59.0,-17.0,16.0
1904-01-01 00:24:41.840383920,E4_Acc,2024-06-28 11:28:42.598079920,-60.0,-18.0,16.0
1904-01-01 00:24:41.871633920,E4_Acc,2024-06-28 11:28:42.629329920,-60.0,-18.0,16.0
1904-01-01 00:24:41.902883920,E4_Acc,2024-06-28 11:28:42.660579920,-60.0,-18.0,17.0
1904-01-01 00:24:41.934133920,E4_Acc,2024-06-28 11:28:42.691829920,-60.0,-18.0,17.0
1904-01-01 00:24:41.965393933,E4_Acc,2024-06-28 11:28:42.723089933,-59.0,-18.0,17.0
1904-01-01 00:24:41.996643933,E4_Acc,2024-06-28 11:28:42.754339933,-61.0,-18.0,17.0
1904-01-01 00:24:42.027893933,E4_Acc,2024-06-28 11:28:42.785589933,-60.0,-18.0,16.0
1904-01-01 00:24:42.059143933,E4_Acc,2024-06-28 11:28:42.816839933,-59.0,-18.0,17.0
1904-01-01 00:24:42.090393933,E4_Acc,2024-06-28 11:28:42.848089933,-59.0,-19.0,16.0
1904-01-01 00:24:42.121643933,E4_Acc,2024-06-28 11:28:42.879339933,-59.0,-18.0,16.0
1904-01-01 00:24:42.152903947,E4_Acc,2024-06-28 11:28:42.910599947,-59.0,-18.0,17.0
1904-01-01 00:24:42.184153947,E4_Acc,2024-06-28 11:28:42.941849947,-60.0,-18.0,17.0
1904-01-01 00:24:42.215403947,E4_Acc,2024-06-28 11:28:42.973099947,-59.0,-18.0,17.0
1904-01-01 00:24:42.246653947,E4_Acc,2024-06-28 11:28:43.004349947,-60.0,-18.0,17.0
1904-01-01 00:24:42.277903947,E4_Acc,2024-06-28 11:28:43.035599947,-59.0,-18.0,17.0
1904-01-01 00:24:42.309153947,E4_Acc,2024-06-28 11:28:43.066849947,-59.0,-18.0,16.0
1904-01-01 00:24:42.340403947,E4_Acc,2024-06-28 11:28:43.098099947,-59.0,-18.0,16.0
1904-01-01 00:24:42.371663961,E4_Acc,2024-06-28 11:28:43.129359961,-59.0,-18.0,16.0
1904-01-01 00:24:42.402913961,E4_Acc,2024-06-28 11:28:43.160609961,-60.0,-18.0,17.0
1904-01-01 00:24:42.434163961,E4_Acc,2024-06-28 11:28:43.191859961,-59.0,-18.0,17.0
1904-01-01 00:24:42.465413961,E4_Acc,2024-06-28 11:28:43.223109961,-59.0,-18.0,17.0
1904-01-01 00:24:42.496663961,E4_Acc,2024-06-28 11:28:43.254359961,-59.0,-18.0,17.0
1904-01-01 00:24:42.527913961,E4_Acc,2024-06-28 11:28:43.285609961,-59.0,-18.0,17.0
1904-01-01 00:24:42.559163961,E4_Acc,2024-06-28 11:28:43.316859961,-60.0,-18.0,16.0
1904-01-01 00:24:42.590423974,E4_Acc,2024-06-28 11:28:43.348119974,-59.0,-17.0,17.0
1904-01-01 00:24:42.621673974,E4_Acc,2024-06-28 11:28:43.379369974,-59.0,-17.0,17.0
1904-01-01 00:24:42.652923974,E4_Acc,2024-06-28 11:28:43.410619974,-60.0,-18.0,17.0
1904-01-01 00:24:42.684173974,E4_Acc,2024-06-28 11:28:43.441869974,-60.0,-18.0,17.0
1904-01-01 00:24:42.715423974,E4_Acc,2024-06-28 11:28:43.473119974,-60.0,-18.0,17.0
1904-01-01 00:24:42.746673974,E4_Acc,2024-06-28 11:28:43.504369974,-59.0,-18.0,17.0
1904-01-01 00:24:42.777923974,E4_Acc,2024-06-28 11:28:43.535619974,-59.0,-18.0,17.0
1904-01-01 00:24:42.809183988,E4_Acc,2024-06-28 11:28:43.566879988,-59.0,-17.0,16.0
1904-01-01 00:24:42.840433988,E4_Acc,2024-06-28 11:28:43.598129988,-59.0,-18.0,17.0
1904-01-01 00:24:42.871683988,E4_Acc,2024-06-28 11:28:43.629379988,-60.0,-18.0,16.0
1904-01-01 00:24:42.902933988,E4_Acc,2024-06-28 11:28:43.660629988,-60.0,-18.0,17.0
1904-01-01 00:24:42.934183988,E4_Acc,2024-06-28 11:28:43.691879988,-60.0,-18.0,17.0
1904-01-01 00:24:42.965433988,E4_Acc,2024-06-28 11:28:43.723129988,-60.0,-19.0,16.0
1904-01-01 00:24:42.996683988,E4_Acc,2024-06-28 11:28:43.754379988,-58.0,-18.0,16.0
1904-01-01 00:24:43.027944001,E4_Acc,2024-06-28 11:28:43.785640001,-59.0,-18.0,16.0
1904-01-01 00:24:43.059194001,E4_Acc,2024-06-28 11:28:43.816890001,-61.0,-19.0,16.0
1904-01-01 00:24:43.090444001,E4_Acc,2024-06-28 11:28:43.848140001,-60.0,-18.0,16.0
1904-01-01 00:24:43.121694001,E4_Acc,2024-06-28 11:28:43.879390001,-59.0,-18.0,16.0
1904-01-01 00:24:43.152944001,E4_Acc,2024-06-28 11:28:43.910640001,-59.0,-18.0,16.0
1904-01-01 00:24:43.184194001,E4_Acc,2024-06-28 11:28:43.941890001,-60.0,-18.0,16.0
1904-01-01 00:24:43.215444001,E4_Acc,2024-06-28 11:28:43.973140001,-60.0,-18.0,16.0
1904-01-01 00:24:43.246704015,E4_Acc,2024-06-28 11:28:44.004400015,-60.0,-18.0,16.0
1904-01-01 00:24:43.277954015,E4_Acc,2024-06-28 11:28:44.035650015,-60.0,-18.0,16.0
1904-01-01 00:24:43.309204014,E4_Acc,2024-06-28 11:28:44.066900014,-59.0,-19.0,16.0
1904-01-01 00:24:43.340454015,E4_Acc,2024-06-28 11:28:44.098150015,-59.0,-19.0,16.0
1904-01-01 00:24:43.371704015,E4_Acc,2024-06-28 11:28:44.129400015,-59.0,-19.0,16.0
1904-01-01 00:24:43.402954015,E4_Acc,2024-06-28 11:28:44.160650015,-60.0,-19.0,16.0
1904-01-01 00:24:43.434204015,E4_Acc,2024-06-28 11:28:44.191900015,-60.0,-18.0,16.0
1904-01-01 00:24:43.465464028,E4_Acc,2024-06-28 11:28:44.223160028,-60.0,-18.0,16.0
1904-01-01 00:24:43.496714028,E4_Acc,2024-06-28 11:28:44.254410028,-60.0,-18.0,16.0
1904-01-01 00:24:43.527964028,E4_Acc,2024-06-28 11:28:44.285660028,-61.0,-19.0,16.0
1904-01-01 00:24:43.559214028,E4_Acc,2024-06-28 11:28:44.316910028,-60.0,-18.0,16.0
1904-01-01 00:24:43.590464028,E4_Acc,2024-06-28 11:28:44.348160028,-59.0,-18.0,16.0
1904-01-01 00:24:43.621714028,E4_Acc,2024-06-28 11:28:44.379410028,-60.0,-18.0,16.0
1904-01-01 00:24:43.652964028,E4_Acc,2024-06-28 11:28:44.410660028,-60.0,-19.0,15.0
1904-01-01 00:24:43.684224042,E4_Acc,2024-06-28 11:28:44.441920042,-59.0,-19.0,15.0
1904-01-01 00:24:43.715474042,E4_Acc,2024-06-28 11:28:44.473170042,-59.0,-19.0,16.0
1904-01-01 00:24:43.746724042,E4_Acc,2024-06-28 11:28:44.504420042,-59.0,-18.0,16.0
1904-01-01 00:24:43.777974042,E4_Acc,2024-06-28 11:28:44.535670042,-60.0,-19.0,16.0
1904-01-01 00:24:43.809224042,E4_Acc,2024-06-28 11:28:44.566920042,-59.0,-19.0,16.0
1904-01-01 00:24:43.840474042,E4_Acc,2024-06-28 11:28:44.598170042,-59.0,-18.0,16.0
1904-01-01 00:24:43.871724042,E4_Acc,2024-06-28 11:28:44.629420042,-60.0,-19.0,16.0
1904-01-01 00:24:43.902984056,E4_Acc,2024-06-28 11:28:44.660680056,-60.0,-19.0,16.0
1904-01-01 00:24:43.934234056,E4_Acc,2024-06-28 11:28:44.691930056,-59.0,-18.0,16.0
1904-01-01 00:24:43.965484056,E4_Acc,2024-06-28 11:28:44.723180056,-59.0,-18.0,16.0
1904-01-01 00:24:43.996734056,E4_Acc,2024-06-28 11:28:44.754430056,-59.0,-19.0,16.0
1904-01-01 00:24:44.027984056,E4_Acc,2024-06-28 11:28:44.785680056,-60.0,-18.0,16.0
1904-01-01 00:24:44.059234056,E4_Acc,2024-06-28 11:28:44.816930056,-60.0,-19.0,16.0
1904-01-01 00:24:44.090484056,E4_Acc,2024-06-28 11:28:44.848180056,-59.0,-18.0,16.0
1904-01-01 00:24:44.121744069,E4_Acc,2024-06-28 11:28:44.879440069,-59.0,-19.0,16.0
1904-01-01 00:24:44.152994069,E4_Acc,2024-06-28 11:28:44.910690069,-59.0,-19.0,16.0
1904-01-01 00:24:44.184244069,E4_Acc,2024-06-28 11:28:44.941940069,-60.0,-19.0,16.0
1904-01-01 00:24:44.215494069,E4_Acc,2024-06-28 11:28:44.973190069,-60.0,-20.0,16.0
1904-01-01 00:24:44.246744069,E4_Acc,2024-06-28 11:28:45.004440069,-59.0,-19.0,17.0
1904-01-01 00:24:44.277994069,E4_Acc,2024-06-28 11:28:45.035690069,-59.0,-19.0,16.0
1904-01-01 00:24:44.309254082,E4_Acc,2024-06-28 11:28:45.066950082,-59.0,-19.0,16.0
1904-01-01 00:24:44.340504083,E4_Acc,2024-06-28 11:28:45.098200083,-60.0,-19.0,16.0
1904-01-01 00:24:44.371754083,E4_Acc,2024-06-28 11:28:45.129450083,-59.0,-19.0,16.0
1904-01-01 00:24:44.403004083,E4_Acc,2024-06-28 11:28:45.160700083,-59.0,-19.0,17.0
1904-01-01 00:24:44.434254083,E4_Acc,2024-06-28 11:28:45.191950083,-59.0,-19.0,17.0
1904-01-01 00:24:44.465504083,E4_Acc,2024-06-28 11:28:45.223200083,-59.0,-19.0,17.0
1904-01-01 00:24:44.496754083,E4_Acc,2024-06-28 11:28:45.254450083,-60.0,-19.0,17.0
1904-01-01 00:24:44.528014096,E4_Acc,2024-06-28 11:28:45.285710096,-59.0,-19.0,16.0
1904-01-01 00:24:44.559264096,E4_Acc,2024-06-28 11:28:45.316960096,-59.0,-18.0,16.0
1904-01-01 00:24:44.590514096,E4_Acc,2024-06-28 11:28:45.348210096,-59.0,-18.0,16.0
1904-01-01 00:24:44.621764096,E4_Acc,2024-06-28 11:28:45.379460096,-58.0,-18.0,17.0
1904-01-01 00:24:44.653014096,E4_Acc,2024-06-28 11:28:45.410710096,-59.0,-18.0,17.0
1904-01-01 00:24:44.684264096,E4_Acc,2024-06-28 11:28:45.441960096,-59.0,-19.0,17.0
1904-01-01 00:24:44.715514096,E4_Acc,2024-06-28 11:28:45.473210096,-60.0,-19.0,16.0
1904-01-01 00:24:44.746774110,E4_Acc,2024-06-28 11:28:45.504470110,-59.0,-19.0,17.0
1904-01-01 00:24:44.778024110,E4_Acc,2024-06-28 11:28:45.535720110,-58.0,-18.0,17.0
1904-01-01 00:24:44.809274110,E4_Acc,2024-06-28 11:28:45.566970110,-60.0,-19.0,17.0
1904-01-01 00:24:44.840524110,E4_Acc,2024-06-28 11:28:45.598220110,-60.0,-19.0,17.0
1904-01-01 00:24:44.871774110,E4_Acc,2024-06-28 11:28:45.629470110,-60.0,-19.0,17.0
1904-01-01 00:24:44.903024110,E4_Acc,2024-06-28 11:28:45.660720110,-60.0,-19.0,17.0
1904-01-01 00:24:44.934274110,E4_Acc,2024-06-28 11:28:45.691970110,-59.0,-18.0,17.0
1904-01-01 00:24:44.965533885,E4_Acc,2024-06-28 11:28:45.723229885,-60.0,-19.0,17.0
1904-01-01 00:24:44.996783885,E4_Acc,2024-06-28 11:28:45.754479885,-60.0,-19.0,17.0
1904-01-01 00:24:45.028033885,E4_Acc,2024-06-28 11:28:45.785729885,-58.0,-19.0,17.0
1904-01-01 00:24:45.059283885,E4_Acc,2024-06-28 11:28:45.816979885,-59.0,-18.0,17.0
1904-01-01 00:24:45.090533885,E4_Acc,2024-06-28 11:28:45.848229885,-59.0,-19.0,17.0
1904-01-01 00:24:45.121783885,E4_Acc,2024-06-28 11:28:45.879479885,-60.0,-19.0,17.0
1904-01-01 00:24:45.153033885,E4_Acc,2024-06-28 11:28:45.910729885,-59.0,-19.0,17.0
1904-01-01 00:24:45.184293899,E4_Acc,2024-06-28 11:28:45.941989899,-59.0,-18.0,17.0
1904-01-01 00:24:45.215543899,E4_Acc,2024-06-28 11:28:45.973239899,-59.0,-18.0,17.0
1904-01-01 00:24:45.246793899,E4_Acc,2024-06-28 11:28:46.004489899,-59.0,-18.0,16.0
1904-01-01 00:24:45.278043899,E4_Acc,2024-06-28 11:28:46.035739899,-59.0,-18.0,16.0
1904-01-01 00:24:45.309293899,E4_Acc,2024-06-28 11:28:46.066989899,-60.0,-18.0,17.0
1904-01-01 00:24:45.340543899,E4_Acc,2024-06-28 11:28:46.098239899,-59.0,-18.0,17.0
1904-01-01 00:24:45.371793898,E4_Acc,2024-06-28 11:28:46.129489898,-60.0,-18.0,17.0
1904-01-01 00:24:45.403053912,E4_Acc,2024-06-28 11:28:46.160749912,-59.0,-18.0,17.0
1904-01-01 00:24:45.434303912,E4_Acc,2024-06-28 11:28:46.191999912,-59.0,-18.0,17.0
1904-01-01 00:24:45.465553912,E4_Acc,2024-06-28 11:28:46.223249912,-60.0,-18.0,16.0
1904-01-01 00:24:45.496803912,E4_Acc,2024-06-28 11:28:46.254499912,-60.0,-18.0,17.0
1904-01-01 00:24:45.528053912,E4_Acc,2024-06-28 11:28:46.285749912,-59.0,-18.0,17.0
1904-01-01 00:24:45.559303912,E4_Acc,2024-06-28 11:28:46.316999912,-59.0,-18.0,17.0
1904-01-01 00:24:45.590553912,E4_Acc,2024-06-28 11:28:46.348249912,-59.0,-18.0,17.0
1904-01-01 00:24:45.621813926,E4_Acc,2024-06-28 11:28:46.379509926,-60.0,-18.0,17.0
1904-01-01 00:24:45.653063926,E4_Acc,2024-06-28 11:28:46.410759926,-60.0,-18.0,17.0
1904-01-01 00:24:45.684313926,E4_Acc,2024-06-28 11:28:46.442009926,-59.0,-18.0,17.0
1904-01-01 00:24:45.715563926,E4_Acc,2024-06-28 11:28:46.473259926,-59.0,-18.0,17.0
1904-01-01 00:24:45.746813926,E4_Acc,2024-06-28 11:28:46.504509926,-59.0,-18.0,17.0
1904-01-01 00:24:45.778063926,E4_Acc,2024-06-28 11:28:46.535759926,-59.0,-18.0,17.0
1904-01-01 00:24:45.809313926,E4_Acc,2024-06-28 11:28:46.567009926,-59.0,-18.0,17.0
1904-01-01 00:24:45.840573939,E4_Acc,2024-06-28 11:28:46.598269939,-60.0,-18.0,17.0
1904-01-01 00:24:45.871823939,E4_Acc,2024-06-28 11:28:46.629519939,-60.0,-18.0,17.0
1904-01-01 00:24:45.903073939,E4_Acc,2024-06-28 11:28:46.660769939,-60.0,-18.0,17.0
1904-01-01 00:24:45.934323939,E4_Acc,2024-06-28 11:28:46.692019939,-60.0,-18.0,17.0
1904-01-01 00:24:45.965573939,E4_Acc,2024-06-28 11:28:46.723269939,-59.0,-18.0,17.0
1904-01-01 00:24:45.996823939,E4_Acc,2024-06-28 11:28:46.754519939,-59.0,-18.0,17.0
1904-01-01 00:24:46.028073939,E4_Acc,2024-06-28 11:28:46.785769939,-59.0,-18.0,17.0
1904-01-01 00:24:46.059333953,E4_Acc,2024-06-28 11:28:46.817029953,-59.0,-18.0,17.0
1904-01-01 00:24:46.090583953,E4_Acc,2024-06-28 11:28:46.848279953,-60.0,-18.0,17.0
1904-01-01 00:24:46.121833953,E4_Acc,2024-06-28 11:28:46.879529953,-60.0,-18.0,17.0
1904-01-01 00:24:46.153083953,E4_Acc,2024-06-28 11:28:46.910779953,-60.0,-18.0,17.0
1904-01-01 00:24:46.184333953,E4_Acc,2024-06-28 11:28:46.942029953,-60.0,-18.0,17.0
1904-01-01 00:24:46.215583953,E4_Acc,2024-06-28 11:28:46.973279953,-59.0,-18.0,16.0
1904-01-01 00:24:46.246833953,E4_Acc,2024-06-28 11:28:47.004529953,-59.0,-18.0,17.0
1904-01-01 00:24:46.278093967,E4_Acc,2024-06-28 11:28:47.035789967,-60.0,-18.0,17.0
1904-01-01 00:24:46.309343967,E4_Acc,2024-06-28 11:28:47.067039967,-60.0,-18.0,17.0
1904-01-01 00:24:46.340593967,E4_Acc,2024-06-28 11:28:47.098289967,-59.0,-18.0,17.0
1904-01-01 00:24:46.371843967,E4_Acc,2024-06-28 11:28:47.129539967,-59.0,-18.0,17.0
1904-01-01 00:24:46.403093967,E4_Acc,2024-06-28 11:28:47.160789967,-59.0,-18.0,17.0
1904-01-01 00:24:46.434343967,E4_Acc,2024-06-28 11:28:47.192039967,-60.0,-18.0,17.0
1904-01-01 00:24:46.465593967,E4_Acc,2024-06-28 11:28:47.223289967,-60.0,-18.0,17.0
1904-01-01 00:24:46.496853980,E4_Acc,2024-06-28 11:28:47.254549980,-60.0,-18.0,17.0
1904-01-01 00:24:46.528103980,E4_Acc,2024-06-28 11:28:47.285799980,-59.0,-17.0,17.0
1904-01-01 00:24:46.559353980,E4_Acc,2024-06-28 11:28:47.317049980,-59.0,-18.0,17.0
1904-01-01 00:24:46.590603980,E4_Acc,2024-06-28 11:28:47.348299980,-60.0,-18.0,17.0
1904-01-01 00:24:46.621853980,E4_Acc,2024-06-28 11:28:47.379549980,-59.0,-18.0,17.0
1904-01-01 00:24:46.653103980,E4_Acc,2024-06-28 11:28:47.410799980,-59.0,-18.0,17.0
1904-01-01 00:24:46.684353980,E4_Acc,2024-06-28 11:28:47.442049980,-60.0,-18.0,17.0
1904-01-01 00:24:46.715613994,E4_Acc,2024-06-28 11:28:47.473309994,-60.0,-18.0,17.0
1904-01-01 00:24:46.746863993,E4_Acc,2024-06-28 11:28:47.504559993,-58.0,-18.0,18.0
1904-01-01 00:24:46.778113993,E4_Acc,2024-06-28 11:28:47.535809993,-59.0,-18.0,17.0
1904-01-01 00:24:46.809363994,E4_Acc,2024-06-28 11:28:47.567059994,-60.0,-17.0,17.0
1904-01-01 00:24:46.840613994,E4_Acc,2024-06-28 11:28:47.598309994,-60.0,-17.0,17.0
1904-01-01 00:24:46.871863994,E4_Acc,2024-06-28 11:28:47.629559994,-59.0,-17.0,17.0
1904-01-01 00:24:46.903124007,E4_Acc,2024-06-28 11:28:47.660820007,-60.0,-16.0,17.0
1904-01-01 00:24:46.934374007,E4_Acc,2024-06-28 11:28:47.692070007,-60.0,-17.0,17.0
1904-01-01 00:24:46.965624007,E4_Acc,2024-06-28 11:28:47.723320007,-60.0,-18.0,17.0
1904-01-01 00:24:46.996874007,E4_Acc,2024-06-28 11:28:47.754570007,-59.0,-18.0,17.0
1904-01-01 00:24:47.028124007,E4_Acc,2024-06-28 11:28:47.785820007,-60.0,-18.0,17.0
1904-01-01 00:24:47.059374007,E4_Acc,2024-06-28 11:28:47.817070007,-59.0,-18.0,17.0
1904-01-01 00:24:47.090624007,E4_Acc,2024-06-28 11:28:47.848320007,-60.0,-18.0,17.0
1904-01-01 00:24:47.121884021,E4_Acc,2024-06-28 11:28:47.879580021,-60.0,-18.0,17.0
1904-01-01 00:24:47.153134021,E4_Acc,2024-06-28 11:28:47.910830021,-60.0,-18.0,17.0
1904-01-01 00:24:47.184384021,E4_Acc,2024-06-28 11:28:47.942080021,-60.0,-17.0,17.0
1904-01-01 00:24:47.215634021,E4_Acc,2024-06-28 11:28:47.973330021,-60.0,-18.0,17.0
1904-01-01 00:24:47.246884021,E4_Acc,2024-06-28 11:28:48.004580021,-60.0,-18.0,17.0
1904-01-01 00:24:47.278134021,E4_Acc,2024-06-28 11:28:48.035830021,-59.0,-18.0,17.0
1904-01-01 00:24:47.309384021,E4_Acc,2024-06-28 11:28:48.067080021,-60.0,-18.0,17.0
1904-01-01 00:24:47.340644034,E4_Acc,2024-06-28 11:28:48.098340034,-60.0,-18.0,17.0
1904-01-01 00:24:47.371894034,E4_Acc,2024-06-28 11:28:48.129590034,-60.0,-18.0,17.0
1904-01-01 00:24:47.403144034,E4_Acc,2024-06-28 11:28:48.160840034,-59.0,-18.0,17.0
1904-01-01 00:24:47.434394034,E4_Acc,2024-06-28 11:28:48.192090034,-59.0,-18.0,17.0
1904-01-01 00:24:47.465644034,E4_Acc,2024-06-28 11:28:48.223340034,-60.0,-17.0,17.0
1904-01-01 00:24:47.496894034,E4_Acc,2024-06-28 11:28:48.254590034,-60.0,-17.0,17.0
1904-01-01 00:24:47.528144034,E4_Acc,2024-06-28 11:28:48.285840034,-60.0,-17.0,17.0
1904-01-01 00:24:47.559404048,E4_Acc,2024-06-28 11:28:48.317100048,-59.0,-17.0,17.0
1904-01-01 00:24:47.590654048,E4_Acc,2024-06-28 11:28:48.348350048,-59.0,-17.0,17.0
1904-01-01 00:24:47.621904048,E4_Acc,2024-06-28 11:28:48.379600048,-60.0,-18.0,17.0
1904-01-01 00:24:47.653154048,E4_Acc,2024-06-28 11:28:48.410850048,-60.0,-18.0,17.0
1904-01-01 00:24:47.684404048,E4_Acc,2024-06-28 11:28:48.442100048,-59.0,-18.0,17.0
1904-01-01 00:24:47.715654048,E4_Acc,2024-06-28 11:28:48.473350048,-59.0,-18.0,18.0
1904-01-01 00:24:47.746904048,E4_Acc,2024-06-28 11:28:48.504600048,-59.0,-17.0,18.0
1904-01-01 00:24:47.778164062,E4_Acc,2024-06-28 11:28:48.535860062,-60.0,-18.0,17.0
1904-01-01 00:24:47.809414062,E4_Acc,2024-06-28 11:28:48.567110062,-61.0,-18.0,17.0
1904-01-01 00:24:47.840664062,E4_Acc,2024-06-28 11:28:48.598360062,-59.0,-17.0,18.0
1904-01-01 00:24:47.871914062,E4_Acc,2024-06-28 11:28:48.629610062,-58.0,-18.0,18.0
1904-01-01 00:24:47.903164062,E4_Acc,2024-06-28 11:28:48.660860062,-60.0,-18.0,18.0
1904-01-01 00:24:47.934414062,E4_Acc,2024-06-28 11:28:48.692110062,-59.0,-18.0,18.0
1904-01-01 00:24:47.965664062,E4_Acc,2024-06-28 11:28:48.723360062,-59.0,-18.0,18.0
1904-01-01 00:24:47.996924075,E4_Acc,2024-06-28 11:28:48.754620075,-59.0,-18.0,18.0
1904-01-01 00:24:48.028174075,E4_Acc,2024-06-28 11:28:48.785870075,-59.0,-18.0,18.0
1904-01-01 00:24:48.059424075,E4_Acc,2024-06-28 11:28:48.817120075,-60.0,-18.0,18.0
1904-01-01 00:24:48.090674075,E4_Acc,2024-06-28 11:28:48.848370075,-59.0,-17.0,18.0
1904-01-01 00:24:48.121924075,E4_Acc,2024-06-28 11:28:48.879620075,-59.0,-18.0,18.0
1904-01-01 00:24:48.153174075,E4_Acc,2024-06-28 11:28:48.910870075,-59.0,-18.0,18.0
1904-01-01 00:24:48.184424075,E4_Acc,2024-06-28 11:28:48.942120075,-60.0,-17.0,18.0
1904-01-01 00:24:48.215684089,E4_Acc,2024-06-28 11:28:48.973380089,-59.0,-18.0,18.0
1904-01-01 00:24:48.246934089,E4_Acc,2024-06-28 11:28:49.004630089,-59.0,-18.0,18.0
1904-01-01 00:24:48.278184089,E4_Acc,2024-06-28 11:28:49.035880089,-59.0,-17.0,17.0
1904-01-01 00:24:48.309434089,E4_Acc,2024-06-28 11:28:49.067130089,-59.0,-17.0,17.0
1904-01-01 00:24:48.340684089,E4_Acc,2024-06-28 11:28:49.098380089,-60.0,-17.0,17.0
1904-01-01 00:24:48.371934089,E4_Acc,2024-06-28 11:28:49.129630089,-59.0,-17.0,17.0
1904-01-01 00:24:48.403184089,E4_Acc,2024-06-28 11:28:49.160880089,-60.0,-18.0,18.0
1904-01-01 00:24:48.434444102,E4_Acc,2024-06-28 11:28:49.192140102,-60.0,-18.0,17.0
1904-01-01 00:24:48.465694102,E4_Acc,2024-06-28 11:28:49.223390102,-59.0,-18.0,18.0
1904-01-01 00:24:48.496944101,E4_Acc,2024-06-28 11:28:49.254640101,-59.0,-18.0,18.0
1904-01-01 00:24:48.528194102,E4_Acc,2024-06-28 11:28:49.285890102,-59.0,-18.0,17.0
1904-01-01 00:24:48.559444102,E4_Acc,2024-06-28 11:28:49.317140102,-60.0,-18.0,17.0
1904-01-01 00:24:48.590694102,E4_Acc,2024-06-28 11:28:49.348390102,-59.0,-17.0,17.0
1904-01-01 00:24:48.621944102,E4_Acc,2024-06-28 11:28:49.379640102,-59.0,-18.0,18.0
1904-01-01 00:24:48.653204116,E4_Acc,2024-06-28 11:28:49.410900116,-59.0,-18.0,18.0
1904-01-01 00:24:48.684454116,E4_Acc,2024-06-28 11:28:49.442150116,-60.0,-18.0,17.0
1904-01-01 00:24:48.715704116,E4_Acc,2024-06-28 11:28:49.473400116,-60.0,-18.0,17.0
1904-01-01 00:24:48.746954116,E4_Acc,2024-06-28 11:28:49.504650116,-59.0,-17.0,17.0
1904-01-01 00:24:48.778204116,E4_Acc,2024-06-28 11:28:49.535900116,-59.0,-18.0,17.0
1904-01-01 00:24:48.809454116,E4_Acc,2024-06-28 11:28:49.567150116,-60.0,-18.0,17.0
1904-01-01 00:24:48.840704116,E4_Acc,2024-06-28 11:28:49.598400116,-60.0,-18.0,17.0
1904-01-01 00:24:48.871963891,E4_Acc,2024-06-28 11:28:49.629659891,-59.0,-17.0,17.0
1904-01-01 00:24:48.903213891,E4_Acc,2024-06-28 11:28:49.660909891,-60.0,-17.0,18.0
1904-01-01 00:24:48.934463891,E4_Acc,2024-06-28 11:28:49.692159891,-60.0,-18.0,17.0
1904-01-01 00:24:48.965713891,E4_Acc,2024-06-28 11:28:49.723409891,-60.0,-18.0,17.0
1904-01-01 00:24:48.996963891,E4_Acc,2024-06-28 11:28:49.754659891,-59.0,-17.0,17.0
1904-01-01 00:24:49.028213891,E4_Acc,2024-06-28 11:28:49.785909891,-59.0,-17.0,17.0
1904-01-01 00:24:49.059463891,E4_Acc,2024-06-28 11:28:49.817159891,-60.0,-17.0,17.0
1904-01-01 00:24:49.090723905,E4_Acc,2024-06-28 11:28:49.848419905,-60.0,-17.0,17.0
1904-01-01 00:24:49.121973905,E4_Acc,2024-06-28 11:28:49.879669905,-60.0,-17.0,17.0
1904-01-01 00:24:49.153223905,E4_Acc,2024-06-28 11:28:49.910919905,-60.0,-18.0,17.0
1904-01-01 00:24:49.184473905,E4_Acc,2024-06-28 11:28:49.942169905,-59.0,-17.0,17.0
1904-01-01 00:24:49.215723905,E4_Acc,2024-06-28 11:28:49.973419905,-59.0,-18.0,17.0
1904-01-01 00:24:49.246973905,E4_Acc,2024-06-28 11:28:50.004669905,-59.0,-18.0,17.0
1904-01-01 00:24:49.278233918,E4_Acc,2024-06-28 11:28:50.035929918,-60.0,-18.0,17.0
1904-01-01 00:24:49.309483918,E4_Acc,2024-06-28 11:28:50.067179918,-59.0,-17.0,17.0
1904-01-01 00:24:49.340733918,E4_Acc,2024-06-28 11:28:50.098429918,-60.0,-18.0,17.0
1904-01-01 00:24:49.371983918,E4_Acc,2024-06-28 11:28:50.129679918,-60.0,-18.0,17.0
1904-01-01 00:24:49.403233918,E4_Acc,2024-06-28 11:28:50.160929918,-60.0,-18.0,17.0
1904-01-01 00:24:49.434483918,E4_Acc,2024-06-28 11:28:50.192179918,-59.0,-18.0,17.0
1904-01-01 00:24:49.465733918,E4_Acc,2024-06-28 11:28:50.223429918,-59.0,-18.0,17.0
1904-01-01 00:24:49.496993932,E4_Acc,2024-06-28 11:28:50.254689932,-59.0,-18.0,17.0
1904-01-01 00:24:49.528243932,E4_Acc,2024-06-28 11:28:50.285939932,-59.0,-18.0,17.0
1904-01-01 00:24:49.559493932,E4_Acc,2024-06-28 11:28:50.317189932,-59.0,-18.0,18.0
1904-01-01 00:24:49.590743932,E4_Acc,2024-06-28 11:28:50.348439932,-59.0,-17.0,17.0
1904-01-01 00:24:49.621993932,E4_Acc,2024-06-28 11:28:50.379689932,-60.0,-17.0,17.0
1904-01-01 00:24:49.653243932,E4_Acc,2024-06-28 11:28:50.410939932,-60.0,-17.0,17.0
1904-01-01 00:24:49.684493932,E4_Acc,2024-06-28 11:28:50.442189932,-59.0,-17.0,17.0
1904-01-01 00:24:49.715753945,E4_Acc,2024-06-28 11:28:50.473449945,-58.0,-17.0,17.0
1904-01-01 00:24:49.747003945,E4_Acc,2024-06-28 11:28:50.504699945,-59.0,-17.0,17.0
1904-01-01 00:24:49.778253945,E4_Acc,2024-06-28 11:28:50.535949945,-60.0,-17.0,17.0
1904-01-01 00:24:49.809503945,E4_Acc,2024-06-28 11:28:50.567199945,-60.0,-17.0,17.0
1904-01-01 00:24:49.840753945,E4_Acc,2024-06-28 11:28:50.598449945,-59.0,-17.0,17.0
1904-01-01 00:24:49.872003945,E4_Acc,2024-06-28 11:28:50.629699945,-60.0,-17.0,18.0
1904-01-01 00:24:49.903253945,E4_Acc,2024-06-28 11:28:50.660949945,-60.0,-17.0,18.0
1904-01-01 00:24:49.934513959,E4_Acc,2024-06-28 11:28:50.692209959,-59.0,-17.0,18.0
1904-01-01 00:24:49.965763959,E4_Acc,2024-06-28 11:28:50.723459959,-59.0,-17.0,17.0
1904-01-01 00:24:49.997013959,E4_Acc,2024-06-28 11:28:50.754709959,-59.0,-17.0,17.0
1904-01-01 00:24:50.028263959,E4_Acc,2024-06-28 11:28:50.785959959,-59.0,-17.0,17.0
1904-01-01 00:24:50.059513959,E4_Acc,2024-06-28 11:28:50.817209959,-60.0,-17.0,17.0
1904-01-01 00:24:50.090763959,E4_Acc,2024-06-28 11:28:50.848459959,-60.0,-18.0,18.0
1904-01-01 00:24:50.122013959,E4_Acc,2024-06-28 11:28:50.879709959,-60.0,-18.0,17.0
1904-01-01 00:24:50.153273973,E4_Acc,2024-06-28 11:28:50.910969973,-59.0,-17.0,18.0
1904-01-01 00:24:50.184523973,E4_Acc,2024-06-28 11:28:50.942219973,-59.0,-17.0,18.0
1904-01-01 00:24:50.215773973,E4_Acc,2024-06-28 11:28:50.973469973,-59.0,-18.0,17.0
1904-01-01 00:24:50.247023973,E4_Acc,2024-06-28 11:28:51.004719973,-59.0,-18.0,17.0
1904-01-01 00:24:50.278273973,E4_Acc,2024-06-28 11:28:51.035969973,-60.0,-18.0,17.0
1904-01-01 00:24:50.309523973,E4_Acc,2024-06-28 11:28:51.067219973,-60.0,-18.0,17.0
1904-01-01 00:24:50.340773973,E4_Acc,2024-06-28 11:28:51.098469973,-58.0,-17.0,18.0
1904-01-01 00:24:50.372033985,E4_Acc,2024-06-28 11:28:51.129729985,-59.0,-18.0,17.0
1904-01-01 00:24:50.403283986,E4_Acc,2024-06-28 11:28:51.160979986,-60.0,-18.0,18.0
1904-01-01 00:24:50.434533986,E4_Acc,2024-06-28 11:28:51.192229986,-59.0,-18.0,18.0
1904-01-01 00:24:50.465783986,E4_Acc,2024-06-28 11:28:51.223479986,-60.0,-18.0,17.0
1904-01-01 00:24:50.497033986,E4_Acc,2024-06-28 11:28:51.254729986,-59.0,-18.0,18.0
1904-01-01 00:24:50.528283986,E4_Acc,2024-06-28 11:28:51.285979986,-59.0,-18.0,17.0
1904-01-01 00:24:50.559533986,E4_Acc,2024-06-28 11:28:51.317229986,-60.0,-18.0,18.0
1904-01-01 00:24:50.590794000,E4_Acc,2024-06-28 11:28:51.348490000,-59.0,-18.0,18.0
1904-01-01 00:24:50.622044000,E4_Acc,2024-06-28 11:28:51.379740000,-58.0,-17.0,18.0
1904-01-01 00:24:50.653294000,E4_Acc,2024-06-28 11:28:51.410990000,-58.0,-17.0,18.0
1904-01-01 00:24:50.684544000,E4_Acc,2024-06-28 11:28:51.442240000,-60.0,-18.0,17.0
1904-01-01 00:24:50.715794000,E4_Acc,2024-06-28 11:28:51.473490000,-60.0,-18.0,18.0
1904-01-01 00:24:50.747043999,E4_Acc,2024-06-28 11:28:51.504739999,-59.0,-18.0,18.0
1904-01-01 00:24:50.778293999,E4_Acc,2024-06-28 11:28:51.535989999,-58.0,-18.0,18.0
1904-01-01 00:24:50.809554013,E4_Acc,2024-06-28 11:28:51.567250013,-59.0,-18.0,17.0
1904-01-01 00:24:50.840804013,E4_Acc,2024-06-28 11:28:51.598500013,-60.0,-18.0,17.0
1904-01-01 00:24:50.872054013,E4_Acc,2024-06-28 11:28:51.629750013,-60.0,-18.0,17.0
1904-01-01 00:24:50.903304013,E4_Acc,2024-06-28 11:28:51.661000013,-59.0,-18.0,17.0
1904-01-01 00:24:50.934554013,E4_Acc,2024-06-28 11:28:51.692250013,-59.0,-18.0,18.0
1904-01-01 00:24:50.965804013,E4_Acc,2024-06-28 11:28:51.723500013,-59.0,-18.0,17.0
1904-01-01 00:24:50.997054013,E4_Acc,2024-06-28 11:28:51.754750013,-59.0,-18.0,18.0
1904-01-01 00:24:51.028314027,E4_Acc,2024-06-28 11:28:51.786010027,-59.0,-18.0,18.0
1904-01-01 00:24:51.059564027,E4_Acc,2024-06-28 11:28:51.817260027,-59.0,-18.0,18.0
1904-01-01 00:24:51.090814027,E4_Acc,2024-06-28 11:28:51.848510027,-59.0,-18.0,18.0
1904-01-01 00:24:51.122064027,E4_Acc,2024-06-28 11:28:51.879760027,-60.0,-18.0,18.0
1904-01-01 00:24:51.153314027,E4_Acc,2024-06-28 11:28:51.911010027,-59.0,-18.0,18.0
1904-01-01 00:24:51.184564027,E4_Acc,2024-06-28 11:28:51.942260027,-60.0,-18.0,17.0
1904-01-01 00:24:51.215814027,E4_Acc,2024-06-28 11:28:51.973510027,-60.0,-18.0,17.0
1904-01-01 00:24:51.247074041,E4_Acc,2024-06-28 11:28:52.004770041,-60.0,-18.0,17.0
1904-01-01 00:24:51.278324041,E4_Acc,2024-06-28 11:28:52.036020041,-58.0,-18.0,17.0
1904-01-01 00:24:51.309574041,E4_Acc,2024-06-28 11:28:52.067270041,-59.0,-18.0,17.0
1904-01-01 00:24:51.340824041,E4_Acc,2024-06-28 11:28:52.098520041,-60.0,-19.0,17.0
1904-01-01 00:24:51.372074041,E4_Acc,2024-06-28 11:28:52.129770041,-60.0,-19.0,17.0
1904-01-01 00:24:51.403324041,E4_Acc,2024-06-28 11:28:52.161020041,-59.0,-18.0,18.0
1904-01-01 00:24:51.434574041,E4_Acc,2024-06-28 11:28:52.192270041,-60.0,-18.0,17.0
1904-01-01 00:24:51.465834054,E4_Acc,2024-06-28 11:28:52.223530054,-59.0,-17.0,17.0
1904-01-01 00:24:51.497084053,E4_Acc,2024-06-28 11:28:52.254780053,-59.0,-18.0,17.0
1904-01-01 00:24:51.528334054,E4_Acc,2024-06-28 11:28:52.286030054,-60.0,-18.0,17.0
1904-01-01 00:24:51.559584054,E4_Acc,2024-06-28 11:28:52.317280054,-59.0,-18.0,18.0
1904-01-01 00:24:51.590834054,E4_Acc,2024-06-28 11:28:52.348530054,-59.0,-18.0,17.0
1904-01-01 00:24:51.622084054,E4_Acc,2024-06-28 11:28:52.379780054,-60.0,-18.0,17.0
1904-01-01 00:24:51.653344068,E4_Acc,2024-06-28 11:28:52.411040068,-59.0,-17.0,18.0
1904-01-01 00:24:51.684594068,E4_Acc,2024-06-28 11:28:52.442290068,-59.0,-18.0,17.0
1904-01-01 00:24:51.715844068,E4_Acc,2024-06-28 11:28:52.473540068,-59.0,-18.0,17.0
1904-01-01 00:24:51.747094068,E4_Acc,2024-06-28 11:28:52.504790068,-60.0,-18.0,18.0
1904-01-01 00:24:51.778344068,E4_Acc,2024-06-28 11:28:52.536040068,-59.0,-18.0,18.0
1904-01-01 00:24:51.809594068,E4_Acc,2024-06-28 11:28:52.567290068,-59.0,-18.0,18.0
1904-01-01 00:24:51.840844068,E4_Acc,2024-06-28 11:28:52.598540068,-59.0,-18.0,18.0
1904-01-01 00:24:51.872104081,E4_Acc,2024-06-28 11:28:52.629800081,-59.0,-18.0,18.0
1904-01-01 00:24:51.903354081,E4_Acc,2024-06-28 11:28:52.661050081,-59.0,-18.0,17.0
1904-01-01 00:24:51.934604081,E4_Acc,2024-06-28 11:28:52.692300081,-60.0,-18.0,18.0
1904-01-01 00:24:51.965854081,E4_Acc,2024-06-28 11:28:52.723550081,-59.0,-18.0,17.0
1904-01-01 00:24:51.997104081,E4_Acc,2024-06-28 11:28:52.754800081,-59.0,-18.0,17.0
1904-01-01 00:24:52.028354081,E4_Acc,2024-06-28 11:28:52.786050081,-59.0,-18.0,18.0
1904-01-01 00:24:52.059604081,E4_Acc,2024-06-28 11:28:52.817300081,-60.0,-18.0,17.0
1904-01-01 00:24:52.090864095,E4_Acc,2024-06-28 11:28:52.848560095,-59.0,-18.0,18.0
1904-01-01 00:24:52.122114095,E4_Acc,2024-06-28 11:28:52.879810095,-59.0,-18.0,17.0
1904-01-01 00:24:52.153364095,E4_Acc,2024-06-28 11:28:52.911060095,-59.0,-18.0,17.0
1904-01-01 00:24:52.184614095,E4_Acc,2024-06-28 11:28:52.942310095,-60.0,-18.0,17.0
1904-01-01 00:24:52.215864095,E4_Acc,2024-06-28 11:28:52.973560095,-59.0,-18.0,18.0
1904-01-01 00:24:52.247114095,E4_Acc,2024-06-28 11:28:53.004810095,-58.0,-17.0,18.0
1904-01-01 00:24:52.278364095,E4_Acc,2024-06-28 11:28:53.036060095,-60.0,-18.0,18.0
1904-01-01 00:24:52.309624108,E4_Acc,2024-06-28 11:28:53.067320108,-60.0,-18.0,18.0
1904-01-01 00:24:52.340874108,E4_Acc,2024-06-28 11:28:53.098570108,-59.0,-18.0,18.0
1904-01-01 00:24:52.372124107,E4_Acc,2024-06-28 11:28:53.129820107,-60.0,-17.0,18.0
1904-01-01 00:24:52.403374108,E4_Acc,2024-06-28 11:28:53.161070108,-60.0,-18.0,17.0
1904-01-01 00:24:52.434624108,E4_Acc,2024-06-28 11:28:53.192320108,-59.0,-17.0,17.0
1904-01-01 00:24:52.465874108,E4_Acc,2024-06-28 11:28:53.223570108,-60.0,-18.0,17.0
1904-01-01 00:24:52.497124108,E4_Acc,2024-06-28 11:28:53.254820108,-60.0,-18.0,18.0
1904-01-01 00:24:52.528383884,E4_Acc,2024-06-28 11:28:53.286079884,-58.0,-18.0,18.0
1904-01-01 00:24:52.559633884,E4_Acc,2024-06-28 11:28:53.317329884,-58.0,-17.0,18.0
1904-01-01 00:24:52.590883884,E4_Acc,2024-06-28 11:28:53.348579884,-59.0,-18.0,18.0
1904-01-01 00:24:52.622133884,E4_Acc,2024-06-28 11:28:53.379829884,-60.0,-18.0,17.0
1904-01-01 00:24:52.653383884,E4_Acc,2024-06-28 11:28:53.411079884,-59.0,-17.0,18.0
1904-01-01 00:24:52.684633884,E4_Acc,2024-06-28 11:28:53.442329884,-59.0,-17.0,18.0
1904-01-01 00:24:52.715883884,E4_Acc,2024-06-28 11:28:53.473579884,-59.0,-17.0,18.0
1904-01-01 00:24:52.747143897,E4_Acc,2024-06-28 11:28:53.504839897,-59.0,-17.0,18.0
1904-01-01 00:24:52.778393897,E4_Acc,2024-06-28 11:28:53.536089897,-59.0,-17.0,18.0
1904-01-01 00:24:52.809643897,E4_Acc,2024-06-28 11:28:53.567339897,-60.0,-17.0,18.0
1904-01-01 00:24:52.840893897,E4_Acc,2024-06-28 11:28:53.598589897,-59.0,-17.0,18.0
1904-01-01 00:24:52.872143897,E4_Acc,2024-06-28 11:28:53.629839897,-59.0,-17.0,18.0
1904-01-01 00:24:52.903393897,E4_Acc,2024-06-28 11:28:53.661089897,-59.0,-17.0,18.0
1904-01-01 00:24:52.934643897,E4_Acc,2024-06-28 11:28:53.692339897,-60.0,-17.0,18.0
1904-01-01 00:24:52.965903911,E4_Acc,2024-06-28 11:28:53.723599911,-59.0,-17.0,18.0
1904-01-01 00:24:52.997153911,E4_Acc,2024-06-28 11:28:53.754849911,-59.0,-18.0,19.0
1904-01-01 00:24:53.028403911,E4_Acc,2024-06-28 11:28:53.786099911,-59.0,-18.0,18.0
1904-01-01 00:24:53.059653911,E4_Acc,2024-06-28 11:28:53.817349911,-58.0,-18.0,18.0
1904-01-01 00:24:53.090903911,E4_Acc,2024-06-28 11:28:53.848599911,-59.0,-17.0,18.0
1904-01-01 00:24:53.122153911,E4_Acc,2024-06-28 11:28:53.879849911,-60.0,-17.0,18.0
1904-01-01 00:24:53.153403911,E4_Acc,2024-06-28 11:28:53.911099911,-59.0,-18.0,18.0
1904-01-01 00:24:53.184663924,E4_Acc,2024-06-28 11:28:53.942359924,-59.0,-18.0,18.0
1904-01-01 00:24:53.215913924,E4_Acc,2024-06-28 11:28:53.973609924,-58.0,-17.0,19.0
1904-01-01 00:24:53.247163924,E4_Acc,2024-06-28 11:28:54.004859924,-59.0,-18.0,18.0
1904-01-01 00:24:53.278413924,E4_Acc,2024-06-28 11:28:54.036109924,-60.0,-18.0,18.0
1904-01-01 00:24:53.309663924,E4_Acc,2024-06-28 11:28:54.067359924,-59.0,-18.0,18.0
1904-01-01 00:24:53.340913924,E4_Acc,2024-06-28 11:28:54.098609924,-58.0,-17.0,18.0
1904-01-01 00:24:53.372163923,E4_Acc,2024-06-28 11:28:54.129859923,-59.0,-17.0,18.0
1904-01-01 00:24:53.403423938,E4_Acc,2024-06-28 11:28:54.161119938,-59.0,-17.0,18.0
1904-01-01 00:24:53.434673938,E4_Acc,2024-06-28 11:28:54.192369938,-60.0,-17.0,18.0
1904-01-01 00:24:53.465923938,E4_Acc,2024-06-28 11:28:54.223619938,-60.0,-18.0,18.0
1904-01-01 00:24:53.497173938,E4_Acc,2024-06-28 11:28:54.254869938,-59.0,-17.0,18.0
1904-01-01 00:24:53.528423938,E4_Acc,2024-06-28 11:28:54.286119938,-58.0,-17.0,18.0
1904-01-01 00:24:53.559673938,E4_Acc,2024-06-28 11:28:54.317369938,-60.0,-18.0,17.0
1904-01-01 00:24:53.590923938,E4_Acc,2024-06-28 11:28:54.348619938,-59.0,-18.0,18.0
1904-01-01 00:24:53.622183951,E4_Acc,2024-06-28 11:28:54.379879951,-59.0,-18.0,18.0
1904-01-01 00:24:53.653433951,E4_Acc,2024-06-28 11:28:54.411129951,-60.0,-18.0,18.0
1904-01-01 00:24:53.684683951,E4_Acc,2024-06-28 11:28:54.442379951,-59.0,-18.0,18.0
1904-01-01 00:24:53.715933951,E4_Acc,2024-06-28 11:28:54.473629951,-59.0,-18.0,18.0
1904-01-01 00:24:53.747183951,E4_Acc,2024-06-28 11:28:54.504879951,-60.0,-18.0,18.0
1904-01-01 00:24:53.778433951,E4_Acc,2024-06-28 11:28:54.536129951,-59.0,-18.0,18.0
1904-01-01 00:24:53.809683951,E4_Acc,2024-06-28 11:28:54.567379951,-61.0,-17.0,18.0
1904-01-01 00:24:53.840943965,E4_Acc,2024-06-28 11:28:54.598639965,-61.0,-17.0,17.0
1904-01-01 00:24:53.872193965,E4_Acc,2024-06-28 11:28:54.629889965,-59.0,-18.0,18.0
1904-01-01 00:24:53.903443965,E4_Acc,2024-06-28 11:28:54.661139965,-59.0,-17.0,18.0
1904-01-01 00:24:53.934693965,E4_Acc,2024-06-28 11:28:54.692389965,-59.0,-17.0,18.0
1904-01-01 00:24:53.965943965,E4_Acc,2024-06-28 11:28:54.723639965,-60.0,-18.0,18.0
1904-01-01 00:24:53.997193965,E4_Acc,2024-06-28 11:28:54.754889965,-61.0,-18.0,18.0
1904-01-01 00:24:54.028443965,E4_Acc,2024-06-28 11:28:54.786139965,-58.0,-17.0,18.0
1904-01-01 00:24:54.059703979,E4_Acc,2024-06-28 11:28:54.817399979,-58.0,-18.0,18.0
1904-01-01 00:24:54.090953979,E4_Acc,2024-06-28 11:28:54.848649979,-60.0,-18.0,18.0
1904-01-01 00:24:54.122203979,E4_Acc,2024-06-28 11:28:54.879899979,-59.0,-18.0,18.0
1904-01-01 00:24:54.153453979,E4_Acc,2024-06-28 11:28:54.911149979,-59.0,-17.0,18.0
1904-01-01 00:24:54.184703979,E4_Acc,2024-06-28 11:28:54.942399979,-59.0,-17.0,18.0
1904-01-01 00:24:54.215953979,E4_Acc,2024-06-28 11:28:54.973649979,-59.0,-18.0,19.0
1904-01-01 00:24:54.247203979,E4_Acc,2024-06-28 11:28:55.004899979,-60.0,-18.0,18.0
1904-01-01 00:24:54.278463992,E4_Acc,2024-06-28 11:28:55.036159992,-58.0,-17.0,18.0
1904-01-01 00:24:54.309713992,E4_Acc,2024-06-28 11:28:55.067409992,-59.0,-17.0,18.0
1904-01-01 00:24:54.340963992,E4_Acc,2024-06-28 11:28:55.098659992,-59.0,-17.0,17.0
1904-01-01 00:24:54.372213992,E4_Acc,2024-06-28 11:28:55.129909992,-58.0,-16.0,18.0
1904-01-01 00:24:54.403463992,E4_Acc,2024-06-28 11:28:55.161159992,-60.0,-17.0,18.0
1904-01-01 00:24:54.434713992,E4_Acc,2024-06-28 11:28:55.192409992,-59.0,-17.0,19.0
1904-01-01 00:24:54.465974006,E4_Acc,2024-06-28 11:28:55.223670006,-58.0,-17.0,20.0
1904-01-01 00:24:54.497224005,E4_Acc,2024-06-28 11:28:55.254920005,-59.0,-17.0,18.0
1904-01-01 00:24:54.528474006,E4_Acc,2024-06-28 11:28:55.286170006,-60.0,-17.0,18.0
1904-01-01 00:24:54.559724006,E4_Acc,2024-06-28 11:28:55.317420006,-59.0,-17.0,18.0
1904-01-01 00:24:54.590974006,E4_Acc,2024-06-28 11:28:55.348670006,-60.0,-17.0,17.0
1904-01-01 00:24:54.622224006,E4_Acc,2024-06-28 11:28:55.379920006,-60.0,-17.0,18.0
1904-01-01 00:24:54.653474006,E4_Acc,2024-06-28 11:28:55.411170006,-59.0,-17.0,18.0
1904-01-01 00:24:54.684734019,E4_Acc,2024-06-28 11:28:55.442430019,-60.0,-18.0,18.0
1904-01-01 00:24:54.715984019,E4_Acc,2024-06-28 11:28:55.473680019,-59.0,-18.0,18.0
1904-01-01 00:24:54.747234019,E4_Acc,2024-06-28 11:28:55.504930019,-58.0,-17.0,18.0
1904-01-01 00:24:54.778484019,E4_Acc,2024-06-28 11:28:55.536180019,-59.0,-17.0,17.0
1904-01-01 00:24:54.809734019,E4_Acc,2024-06-28 11:28:55.567430019,-60.0,-17.0,17.0
1904-01-01 00:24:54.840984019,E4_Acc,2024-06-28 11:28:55.598680019,-60.0,-18.0,18.0
1904-01-01 00:24:54.872234019,E4_Acc,2024-06-28 11:28:55.629930019,-60.0,-18.0,18.0
1904-01-01 00:24:54.903494033,E4_Acc,2024-06-28 11:28:55.661190033,-59.0,-18.0,18.0
1904-01-01 00:24:54.934744033,E4_Acc,2024-06-28 11:28:55.692440033,-59.0,-18.0,18.0
1904-01-01 00:24:54.965994033,E4_Acc,2024-06-28 11:28:55.723690033,-60.0,-18.0,18.0
1904-01-01 00:24:54.997244033,E4_Acc,2024-06-28 11:28:55.754940033,-60.0,-18.0,18.0
1904-01-01 00:24:55.028494033,E4_Acc,2024-06-28 11:28:55.786190033,-60.0,-17.0,18.0
1904-01-01 00:24:55.059744033,E4_Acc,2024-06-28 11:28:55.817440033,-59.0,-17.0,18.0
1904-01-01 00:24:55.090994033,E4_Acc,2024-06-28 11:28:55.848690033,-59.0,-18.0,18.0
1904-01-01 00:24:55.122254047,E4_Acc,2024-06-28 11:28:55.879950047,-60.0,-17.0,18.0
1904-01-01 00:24:55.153504047,E4_Acc,2024-06-28 11:28:55.911200047,-60.0,-16.0,18.0
1904-01-01 00:24:55.184754047,E4_Acc,2024-06-28 11:28:55.942450047,-60.0,-17.0,18.0
1904-01-01 00:24:55.216004047,E4_Acc,2024-06-28 11:28:55.973700047,-60.0,-17.0,18.0
1904-01-01 00:24:55.247254047,E4_Acc,2024-06-28 11:28:56.004950047,-59.0,-17.0,18.0
1904-01-01 00:24:55.278504047,E4_Acc,2024-06-28 11:28:56.036200047,-59.0,-16.0,17.0
1904-01-01 00:24:55.309754047,E4_Acc,2024-06-28 11:28:56.067450047,-59.0,-17.0,18.0
1904-01-01 00:24:55.341014060,E4_Acc,2024-06-28 11:28:56.098710060,-59.0,-17.0,18.0
1904-01-01 00:24:55.372264059,E4_Acc,2024-06-28 11:28:56.129960059,-60.0,-17.0,19.0
1904-01-01 00:24:55.403514060,E4_Acc,2024-06-28 11:28:56.161210060,-59.0,-17.0,19.0
1904-01-01 00:24:55.434764060,E4_Acc,2024-06-28 11:28:56.192460060,-60.0,-16.0,19.0
1904-01-01 00:24:55.466014060,E4_Acc,2024-06-28 11:28:56.223710060,-60.0,-15.0,18.0
1904-01-01 00:24:55.497264060,E4_Acc,2024-06-28 11:28:56.254960060,-60.0,-16.0,18.0
1904-01-01 00:24:55.528514060,E4_Acc,2024-06-28 11:28:56.286210060,-59.0,-16.0,18.0
1904-01-01 00:24:55.559774074,E4_Acc,2024-06-28 11:28:56.317470074,-59.0,-17.0,18.0
1904-01-01 00:24:55.591024074,E4_Acc,2024-06-28 11:28:56.348720074,-59.0,-16.0,19.0
1904-01-01 00:24:55.622274074,E4_Acc,2024-06-28 11:28:56.379970074,-58.0,-16.0,19.0
1904-01-01 00:24:55.653524074,E4_Acc,2024-06-28 11:28:56.411220074,-59.0,-16.0,19.0
1904-01-01 00:24:55.684774074,E4_Acc,2024-06-28 11:28:56.442470074,-60.0,-17.0,18.0
1904-01-01 00:24:55.716024074,E4_Acc,2024-06-28 11:28:56.473720074,-60.0,-17.0,18.0
1904-01-01 00:24:55.747274074,E4_Acc,2024-06-28 11:28:56.504970074,-59.0,-17.0,19.0
1904-01-01 00:24:55.778534086,E4_Acc,2024-06-28 11:28:56.536230086,-59.0,-17.0,19.0
1904-01-01 00:24:55.809784087,E4_Acc,2024-06-28 11:28:56.567480087,-59.0,-17.0,19.0
1904-01-01 00:24:55.841034087,E4_Acc,2024-06-28 11:28:56.598730087,-59.0,-16.0,19.0
1904-01-01 00:24:55.872284087,E4_Acc,2024-06-28 11:28:56.629980087,-59.0,-17.0,19.0
1904-01-01 00:24:55.903534087,E4_Acc,2024-06-28 11:28:56.661230087,-59.0,-16.0,19.0
1904-01-01 00:24:55.934784087,E4_Acc,2024-06-28 11:28:56.692480087,-59.0,-16.0,19.0
1904-01-01 00:24:55.966034087,E4_Acc,2024-06-28 11:28:56.723730087,-59.0,-16.0,19.0
1904-01-01 00:24:55.997294101,E4_Acc,2024-06-28 11:28:56.754990101,-60.0,-16.0,19.0
1904-01-01 00:24:56.028544101,E4_Acc,2024-06-28 11:28:56.786240101,-60.0,-17.0,19.0
1904-01-01 00:24:56.059794101,E4_Acc,2024-06-28 11:28:56.817490101,-59.0,-16.0,19.0
1904-01-01 00:24:56.091044101,E4_Acc,2024-06-28 11:28:56.848740101,-59.0,-16.0,19.0
1904-01-01 00:24:56.122294101,E4_Acc,2024-06-28 11:28:56.879990101,-59.0,-16.0,19.0
1904-01-01 00:24:56.153544101,E4_Acc,2024-06-28 11:28:56.911240101,-59.0,-16.0,19.0
1904-01-01 00:24:56.184794101,E4_Acc,2024-06-28 11:28:56.942490101,-59.0,-16.0,19.0
1904-01-01 00:24:56.216054114,E4_Acc,2024-06-28 11:28:56.973750114,-60.0,-16.0,19.0
1904-01-01 00:24:56.247304114,E4_Acc,2024-06-28 11:28:57.005000114,-59.0,-16.0,19.0
1904-01-01 00:24:56.278554114,E4_Acc,2024-06-28 11:28:57.036250114,-59.0,-16.0,19.0
1904-01-01 00:24:56.309804114,E4_Acc,2024-06-28 11:28:57.067500114,-60.0,-16.0,19.0
1904-01-01 00:24:56.341054114,E4_Acc,2024-06-28 11:28:57.098750114,-60.0,-16.0,19.0
1904-01-01 00:24:56.372304114,E4_Acc,2024-06-28 11:28:57.130000114,-59.0,-15.0,19.0
1904-01-01 00:24:56.403554114,E4_Acc,2024-06-28 11:28:57.161250114,-61.0,-16.0,19.0
1904-01-01 00:24:56.434813890,E4_Acc,2024-06-28 11:28:57.192509890,-60.0,-17.0,19.0
1904-01-01 00:24:56.466063890,E4_Acc,2024-06-28 11:28:57.223759890,-58.0,-16.0,19.0
1904-01-01 00:24:56.497313890,E4_Acc,2024-06-28 11:28:57.255009890,-58.0,-16.0,18.0
1904-01-01 00:24:56.528563890,E4_Acc,2024-06-28 11:28:57.286259890,-58.0,-16.0,17.0
1904-01-01 00:24:56.559813890,E4_Acc,2024-06-28 11:28:57.317509890,-59.0,-15.0,18.0
1904-01-01 00:24:56.591063890,E4_Acc,2024-06-28 11:28:57.348759890,-61.0,-16.0,17.0
1904-01-01 00:24:56.622323903,E4_Acc,2024-06-28 11:28:57.380019903,-61.0,-16.0,19.0
1904-01-01 00:24:56.653573903,E4_Acc,2024-06-28 11:28:57.411269903,-59.0,-16.0,20.0
1904-01-01 00:24:56.684823903,E4_Acc,2024-06-28 11:28:57.442519903,-59.0,-16.0,20.0
1904-01-01 00:24:56.716073903,E4_Acc,2024-06-28 11:28:57.473769903,-60.0,-17.0,19.0
1904-01-01 00:24:56.747323903,E4_Acc,2024-06-28 11:28:57.505019903,-60.0,-17.0,19.0
1904-01-01 00:24:56.778573903,E4_Acc,2024-06-28 11:28:57.536269903,-59.0,-17.0,19.0
1904-01-01 00:24:56.809823903,E4_Acc,2024-06-28 11:28:57.567519903,-58.0,-16.0,19.0
1904-01-01 00:24:56.841083917,E4_Acc,2024-06-28 11:28:57.598779917,-58.0,-16.0,19.0
1904-01-01 00:24:56.872333917,E4_Acc,2024-06-28 11:28:57.630029917,-61.0,-18.0,19.0
1904-01-01 00:24:56.903583917,E4_Acc,2024-06-28 11:28:57.661279917,-60.0,-17.0,19.0
1904-01-01 00:24:56.934833917,E4_Acc,2024-06-28 11:28:57.692529917,-58.0,-16.0,19.0
1904-01-01 00:24:56.966083917,E4_Acc,2024-06-28 11:28:57.723779917,-59.0,-16.0,19.0
1904-01-01 00:24:56.997333917,E4_Acc,2024-06-28 11:28:57.755029917,-59.0,-16.0,19.0
1904-01-01 00:24:57.028583917,E4_Acc,2024-06-28 11:28:57.786279917,-60.0,-15.0,18.0
1904-01-01 00:24:57.059843930,E4_Acc,2024-06-28 11:28:57.817539930,-60.0,-16.0,18.0
1904-01-01 00:24:57.091093930,E4_Acc,2024-06-28 11:28:57.848789930,-59.0,-17.0,18.0
1904-01-01 00:24:57.122343930,E4_Acc,2024-06-28 11:28:57.880039930,-57.0,-16.0,20.0
1904-01-01 00:24:57.153593930,E4_Acc,2024-06-28 11:28:57.911289930,-58.0,-17.0,20.0
1904-01-01 00:24:57.184843930,E4_Acc,2024-06-28 11:28:57.942539930,-60.0,-16.0,20.0
1904-01-01 00:24:57.216093930,E4_Acc,2024-06-28 11:28:57.973789930,-60.0,-16.0,19.0
1904-01-01 00:24:57.247343930,E4_Acc,2024-06-28 11:28:58.005039930,-60.0,-16.0,18.0
1904-01-01 00:24:57.278603944,E4_Acc,2024-06-28 11:28:58.036299944,-59.0,-16.0,17.0
1904-01-01 00:24:57.309853944,E4_Acc,2024-06-28 11:28:58.067549944,-58.0,-16.0,18.0
1904-01-01 00:24:57.341103944,E4_Acc,2024-06-28 11:28:58.098799944,-60.0,-16.0,18.0
1904-01-01 00:24:57.372353944,E4_Acc,2024-06-28 11:28:58.130049944,-61.0,-16.0,18.0
1904-01-01 00:24:57.403603944,E4_Acc,2024-06-28 11:28:58.161299944,-60.0,-17.0,19.0
1904-01-01 00:24:57.434853944,E4_Acc,2024-06-28 11:28:58.192549944,-58.0,-16.0,20.0
1904-01-01 00:24:57.466103944,E4_Acc,2024-06-28 11:28:58.223799944,-60.0,-17.0,19.0
1904-01-01 00:24:57.497363957,E4_Acc,2024-06-28 11:28:58.255059957,-59.0,-16.0,19.0
1904-01-01 00:24:57.528613958,E4_Acc,2024-06-28 11:28:58.286309958,-58.0,-16.0,19.0
1904-01-01 00:24:57.559863958,E4_Acc,2024-06-28 11:28:58.317559958,-59.0,-17.0,19.0
1904-01-01 00:24:57.591113958,E4_Acc,2024-06-28 11:28:58.348809958,-60.0,-17.0,19.0
1904-01-01 00:24:57.622363958,E4_Acc,2024-06-28 11:28:58.380059958,-58.0,-16.0,19.0
1904-01-01 00:24:57.653613958,E4_Acc,2024-06-28 11:28:58.411309958,-59.0,-15.0,19.0
1904-01-01 00:24:57.684863958,E4_Acc,2024-06-28 11:28:58.442559958,-61.0,-16.0,19.0
1904-01-01 00:24:57.716123971,E4_Acc,2024-06-28 11:28:58.473819971,-60.0,-17.0,19.0
1904-01-01 00:24:57.747373970,E4_Acc,2024-06-28 11:28:58.505069970,-56.0,-15.0,19.0
1904-01-01 00:24:57.778623970,E4_Acc,2024-06-28 11:28:58.536319970,-59.0,-16.0,19.0
1904-01-01 00:24:57.809873971,E4_Acc,2024-06-28 11:28:58.567569971,-61.0,-17.0,19.0
1904-01-01 00:24:57.841123971,E4_Acc,2024-06-28 11:28:58.598819971,-59.0,-16.0,19.0
1904-01-01 00:24:57.872373971,E4_Acc,2024-06-28 11:28:58.630069971,-59.0,-16.0,19.0
1904-01-01 00:24:57.903623971,E4_Acc,2024-06-28 11:28:58.661319971,-59.0,-16.0,19.0
1904-01-01 00:24:57.934883985,E4_Acc,2024-06-28 11:28:58.692579985,-59.0,-16.0,19.0
1904-01-01 00:24:57.966133985,E4_Acc,2024-06-28 11:28:58.723829985,-59.0,-16.0,19.0
1904-01-01 00:24:57.997383985,E4_Acc,2024-06-28 11:28:58.755079985,-59.0,-16.0,19.0
1904-01-01 00:24:58.028633985,E4_Acc,2024-06-28 11:28:58.786329985,-60.0,-17.0,20.0
1904-01-01 00:24:58.059883985,E4_Acc,2024-06-28 11:28:58.817579985,-58.0,-16.0,20.0
1904-01-01 00:24:58.091133985,E4_Acc,2024-06-28 11:28:58.848829985,-58.0,-16.0,19.0
1904-01-01 00:24:58.122383985,E4_Acc,2024-06-28 11:28:58.880079985,-60.0,-17.0,19.0
1904-01-01 00:24:58.153643998,E4_Acc,2024-06-28 11:28:58.911339998,-60.0,-17.0,19.0
1904-01-01 00:24:58.184893998,E4_Acc,2024-06-28 11:28:58.942589998,-59.0,-16.0,19.0
1904-01-01 00:24:58.216143998,E4_Acc,2024-06-28 11:28:58.973839998,-58.0,-17.0,19.0
1904-01-01 00:24:58.247393998,E4_Acc,2024-06-28 11:28:59.005089998,-59.0,-17.0,19.0
1904-01-01 00:24:58.278643998,E4_Acc,2024-06-28 11:28:59.036339998,-59.0,-18.0,19.0
1904-01-01 00:24:58.309893998,E4_Acc,2024-06-28 11:28:59.067589998,-58.0,-17.0,19.0
1904-01-01 00:24:58.341143998,E4_Acc,2024-06-28 11:28:59.098839998,-59.0,-17.0,19.0
1904-01-01 00:24:58.372404011,E4_Acc,2024-06-28 11:28:59.130100011,-59.0,-17.0,19.0
1904-01-01 00:24:58.403654012,E4_Acc,2024-06-28 11:28:59.161350012,-60.0,-17.0,19.0
1904-01-01 00:24:58.434904012,E4_Acc,2024-06-28 11:28:59.192600012,-59.0,-17.0,19.0
1904-01-01 00:24:58.466154012,E4_Acc,2024-06-28 11:28:59.223850012,-59.0,-17.0,19.0
1904-01-01 00:24:58.497404012,E4_Acc,2024-06-28 11:28:59.255100012,-59.0,-18.0,19.0
1904-01-01 00:24:58.528654012,E4_Acc,2024-06-28 11:28:59.286350012,-59.0,-17.0,19.0
1904-01-01 00:24:58.559904012,E4_Acc,2024-06-28 11:28:59.317600012,-59.0,-17.0,19.0
1904-01-01 00:24:58.591164025,E4_Acc,2024-06-28 11:28:59.348860025,-59.0,-17.0,19.0
1904-01-01 00:24:58.622414025,E4_Acc,2024-06-28 11:28:59.380110025,-59.0,-17.0,19.0
1904-01-01 00:24:58.653664025,E4_Acc,2024-06-28 11:28:59.411360025,-60.0,-17.0,19.0
1904-01-01 00:24:58.684914025,E4_Acc,2024-06-28 11:28:59.442610025,-59.0,-17.0,19.0
1904-01-01 00:24:58.716164025,E4_Acc,2024-06-28 11:28:59.473860025,-59.0,-17.0,19.0
1904-01-01 00:24:58.747414025,E4_Acc,2024-06-28 11:28:59.505110025,-59.0,-17.0,19.0
1904-01-01 00:24:58.778664025,E4_Acc,2024-06-28 11:28:59.536360025,-58.0,-18.0,19.0
1904-01-01 00:24:58.809924039,E4_Acc,2024-06-28 11:28:59.567620039,-58.0,-18.0,19.0
1904-01-01 00:24:58.841174039,E4_Acc,2024-06-28 11:28:59.598870039,-59.0,-17.0,20.0
1904-01-01 00:24:58.872424039,E4_Acc,2024-06-28 11:28:59.630120039,-59.0,-17.0,20.0
1904-01-01 00:24:58.903674039,E4_Acc,2024-06-28 11:28:59.661370039,-60.0,-17.0,19.0
1904-01-01 00:24:58.934924039,E4_Acc,2024-06-28 11:28:59.692620039,-57.0,-16.0,19.0
1904-01-01 00:24:58.966174039,E4_Acc,2024-06-28 11:28:59.723870039,-57.0,-16.0,19.0
1904-01-01 00:24:58.997434053,E4_Acc,2024-06-28 11:28:59.755130053,-60.0,-16.0,19.0
1904-01-01 00:24:59.028684053,E4_Acc,2024-06-28 11:28:59.786380053,-60.0,-16.0,19.0
1904-01-01 00:24:59.059934053,E4_Acc,2024-06-28 11:28:59.817630053,-60.0,-16.0,18.0
1904-01-01 00:24:59.091184053,E4_Acc,2024-06-28 11:28:59.848880053,-59.0,-15.0,18.0
1904-01-01 00:24:59.122434053,E4_Acc,2024-06-28 11:28:59.880130053,-59.0,-15.0,18.0
1904-01-01 00:24:59.153684053,E4_Acc,2024-06-28 11:28:59.911380053,-59.0,-16.0,18.0
1904-01-01 00:24:59.184934053,E4_Acc,2024-06-28 11:28:59.942630053,-60.0,-16.0,17.0
1904-01-01 00:24:59.216194066,E4_Acc,2024-06-28 11:28:59.973890066,-60.0,-16.0,18.0
1904-01-01 00:24:59.247444066,E4_Acc,2024-06-28 11:29:00.005140066,-60.0,-16.0,18.0
1904-01-01 00:24:59.278694066,E4_Acc,2024-06-28 11:29:00.036390066,-60.0,-16.0,18.0
1904-01-01 00:24:59.309944066,E4_Acc,2024-06-28 11:29:00.067640066,-60.0,-17.0,18.0
1904-01-01 00:24:59.341194066,E4_Acc,2024-06-28 11:29:00.098890066,-60.0,-17.0,18.0
1904-01-01 00:24:59.372444066,E4_Acc,2024-06-28 11:29:00.130140066,-59.0,-16.0,18.0
1904-01-01 00:24:59.403694066,E4_Acc,2024-06-28 11:29:00.161390066,-60.0,-16.0,17.0
1904-01-01 00:24:59.434954080,E4_Acc,2024-06-28 11:29:00.192650080,-61.0,-16.0,17.0
1904-01-01 00:24:59.466204080,E4_Acc,2024-06-28 11:29:00.223900080,-60.0,-16.0,18.0
1904-01-01 00:24:59.497454080,E4_Acc,2024-06-28 11:29:00.255150080,-61.0,-17.0,18.0
1904-01-01 00:24:59.528704080,E4_Acc,2024-06-28 11:29:00.286400080,-61.0,-17.0,18.0
1904-01-01 00:24:59.559954080,E4_Acc,2024-06-28 11:29:00.317650080,-59.0,-17.0,18.0
1904-01-01 00:24:59.591204080,E4_Acc,2024-06-28 11:29:00.348900080,-59.0,-17.0,18.0
1904-01-01 00:24:59.622454080,E4_Acc,2024-06-28 11:29:00.380150080,-59.0,-17.0,18.0
1904-01-01 00:24:59.653714093,E4_Acc,2024-06-28 11:29:00.411410093,-59.0,-17.0,18.0
1904-01-01 00:24:59.684964093,E4_Acc,2024-06-28 11:29:00.442660093,-60.0,-17.0,18.0
1904-01-01 00:24:59.716214093,E4_Acc,2024-06-28 11:29:00.473910093,-59.0,-17.0,19.0
1904-01-01 00:24:59.747464093,E4_Acc,2024-06-28 11:29:00.505160093,-59.0,-16.0,20.0
1904-01-01 00:24:59.778714093,E4_Acc,2024-06-28 11:29:00.536410093,-59.0,-16.0,20.0
1904-01-01 00:24:59.809964093,E4_Acc,2024-06-28 11:29:00.567660093,-60.0,-16.0,19.0
1904-01-01 00:24:59.841214093,E4_Acc,2024-06-28 11:29:00.598910093,-60.0,-16.0,19.0
1904-01-01 00:24:59.872474107,E4_Acc,2024-06-28 11:29:00.630170107,-58.0,-16.0,19.0
1904-01-01 00:24:59.903724107,E4_Acc,2024-06-28 11:29:00.661420107,-57.0,-15.0,19.0
1904-01-01 00:24:59.934974107,E4_Acc,2024-06-28 11:29:00.692670107,-58.0,-16.0,19.0
1904-01-01 00:24:59.966224107,E4_Acc,2024-06-28 11:29:00.723920107,-60.0,-16.0,19.0
1904-01-01 00:24:59.997474107,E4_Acc,2024-06-28 11:29:00.755170107,-59.0,-16.0,19.0
1904-01-01 00:25:00.028724107,E4_Acc,2024-06-28 11:29:00.786420107,-58.0,-16.0,20.0
1904-01-01 00:25:00.059974107,E4_Acc,2024-06-28 11:29:00.817670107,-58.0,-16.0,19.0
1904-01-01 00:25:00.091233882,E4_Acc,2024-06-28 11:29:00.848929882,-59.0,-16.0,19.0
1904-01-01 00:25:00.122483882,E4_Acc,2024-06-28 11:29:00.880179882,-59.0,-16.0,19.0
1904-01-01 00:25:00.153733882,E4_Acc,2024-06-28 11:29:00.911429882,-59.0,-17.0,19.0
1904-01-01 00:25:00.184983882,E4_Acc,2024-06-28 11:29:00.942679882,-59.0,-16.0,19.0
1904-01-01 00:25:00.216233882,E4_Acc,2024-06-28 11:29:00.973929882,-60.0,-16.0,19.0
1904-01-01 00:25:00.247483882,E4_Acc,2024-06-28 11:29:01.005179882,-60.0,-16.0,19.0
1904-01-01 00:25:00.278733882,E4_Acc,2024-06-28 11:29:01.036429882,-59.0,-16.0,19.0
1904-01-01 00:25:00.309993896,E4_Acc,2024-06-28 11:29:01.067689896,-59.0,-16.0,19.0
1904-01-01 00:25:00.341243896,E4_Acc,2024-06-28 11:29:01.098939896,-59.0,-16.0,19.0
1904-01-01 00:25:00.372493896,E4_Acc,2024-06-28 11:29:01.130189896,-59.0,-16.0,19.0
1904-01-01 00:25:00.403743896,E4_Acc,2024-06-28 11:29:01.161439896,-59.0,-16.0,19.0
1904-01-01 00:25:00.434993896,E4_Acc,2024-06-28 11:29:01.192689896,-59.0,-16.0,19.0
1904-01-01 00:25:00.466243896,E4_Acc,2024-06-28 11:29:01.223939896,-59.0,-16.0,18.0
1904-01-01 00:25:00.497493896,E4_Acc,2024-06-28 11:29:01.255189896,-59.0,-15.0,19.0
1904-01-01 00:25:00.528753909,E4_Acc,2024-06-28 11:29:01.286449909,-60.0,-15.0,19.0
1904-01-01 00:25:00.560003909,E4_Acc,2024-06-28 11:29:01.317699909,-60.0,-17.0,19.0
1904-01-01 00:25:00.591253909,E4_Acc,2024-06-28 11:29:01.348949909,-59.0,-16.0,20.0
1904-01-01 00:25:00.622503909,E4_Acc,2024-06-28 11:29:01.380199909,-59.0,-16.0,19.0
1904-01-01 00:25:00.653753909,E4_Acc,2024-06-28 11:29:01.411449909,-59.0,-17.0,19.0
1904-01-01 00:25:00.685003909,E4_Acc,2024-06-28 11:29:01.442699909,-59.0,-16.0,19.0
1904-01-01 00:25:00.716253909,E4_Acc,2024-06-28 11:29:01.473949909,-60.0,-15.0,18.0
1904-01-01 00:25:00.747513923,E4_Acc,2024-06-28 11:29:01.505209923,-59.0,-16.0,19.0
1904-01-01 00:25:00.778763923,E4_Acc,2024-06-28 11:29:01.536459923,-58.0,-16.0,19.0
1904-01-01 00:25:00.810013923,E4_Acc,2024-06-28 11:29:01.567709923,-61.0,-16.0,19.0
1904-01-01 00:25:00.841263923,E4_Acc,2024-06-28 11:29:01.598959923,-59.0,-16.0,20.0
1904-01-01 00:25:00.872513923,E4_Acc,2024-06-28 11:29:01.630209923,-60.0,-16.0,19.0
1904-01-01 00:25:00.903763923,E4_Acc,2024-06-28 11:29:01.661459923,-57.0,-16.0,19.0
1904-01-01 00:25:00.935013923,E4_Acc,2024-06-28 11:29:01.692709923,-58.0,-16.0,19.0
1904-01-01 00:25:00.966273936,E4_Acc,2024-06-28 11:29:01.723969936,-60.0,-17.0,18.0
1904-01-01 00:25:00.997523936,E4_Acc,2024-06-28 11:29:01.755219936,-58.0,-16.0,19.0
1904-01-01 00:25:01.028773936,E4_Acc,2024-06-28 11:29:01.786469936,-58.0,-16.0,19.0
1904-01-01 00:25:01.060023936,E4_Acc,2024-06-28 11:29:01.817719936,-60.0,-16.0,19.0
1904-01-01 00:25:01.091273936,E4_Acc,2024-06-28 11:29:01.848969936,-59.0,-16.0,19.0
1904-01-01 00:25:01.122523936,E4_Acc,2024-06-28 11:29:01.880219936,-60.0,-16.0,19.0
1904-01-01 00:25:01.153773936,E4_Acc,2024-06-28 11:29:01.911469936,-60.0,-16.0,19.0
1904-01-01 00:25:01.185033950,E4_Acc,2024-06-28 11:29:01.942729950,-59.0,-16.0,19.0
1904-01-01 00:25:01.216283950,E4_Acc,2024-06-28 11:29:01.973979950,-60.0,-16.0,18.0
1904-01-01 00:25:01.247533950,E4_Acc,2024-06-28 11:29:02.005229950,-60.0,-16.0,18.0
1904-01-01 00:25:01.278783950,E4_Acc,2024-06-28 11:29:02.036479950,-59.0,-17.0,18.0
1904-01-01 00:25:01.310033950,E4_Acc,2024-06-28 11:29:02.067729950,-60.0,-16.0,18.0
1904-01-01 00:25:01.341283950,E4_Acc,2024-06-28 11:29:02.098979950,-60.0,-16.0,18.0
1904-01-01 00:25:01.372533950,E4_Acc,2024-06-28 11:29:02.130229950,-59.0,-16.0,19.0
1904-01-01 00:25:01.403793964,E4_Acc,2024-06-28 11:29:02.161489964,-60.0,-17.0,19.0
1904-01-01 00:25:01.435043964,E4_Acc,2024-06-28 11:29:02.192739964,-60.0,-16.0,18.0
1904-01-01 00:25:01.466293964,E4_Acc,2024-06-28 11:29:02.223989964,-58.0,-16.0,18.0
1904-01-01 00:25:01.497543964,E4_Acc,2024-06-28 11:29:02.255239964,-60.0,-16.0,18.0
1904-01-01 00:25:01.528793964,E4_Acc,2024-06-28 11:29:02.286489964,-59.0,-17.0,18.0
1904-01-01 00:25:01.560043964,E4_Acc,2024-06-28 11:29:02.317739964,-58.0,-16.0,18.0
1904-01-01 00:25:01.591303977,E4_Acc,2024-06-28 11:29:02.348999977,-59.0,-17.0,18.0
1904-01-01 00:25:01.622553977,E4_Acc,2024-06-28 11:29:02.380249977,-60.0,-17.0,18.0
1904-01-01 00:25:01.653803977,E4_Acc,2024-06-28 11:29:02.411499977,-60.0,-17.0,19.0
1904-01-01 00:25:01.685053977,E4_Acc,2024-06-28 11:29:02.442749977,-59.0,-16.0,19.0
1904-01-01 00:25:01.716303977,E4_Acc,2024-06-28 11:29:02.473999977,-59.0,-17.0,19.0
1904-01-01 00:25:01.747553976,E4_Acc,2024-06-28 11:29:02.505249976,-60.0,-16.0,18.0
1904-01-01 00:25:01.778803976,E4_Acc,2024-06-28 11:29:02.536499976,-59.0,-16.0,19.0
1904-01-01 00:25:01.810063991,E4_Acc,2024-06-28 11:29:02.567759991,-59.0,-15.0,18.0
1904-01-01 00:25:01.841313991,E4_Acc,2024-06-28 11:29:02.599009991,-60.0,-16.0,18.0
1904-01-01 00:25:01.872563991,E4_Acc,2024-06-28 11:29:02.630259991,-59.0,-16.0,18.0
1904-01-01 00:25:01.903813991,E4_Acc,2024-06-28 11:29:02.661509991,-60.0,-17.0,19.0
1904-01-01 00:25:01.935063991,E4_Acc,2024-06-28 11:29:02.692759991,-59.0,-16.0,19.0
1904-01-01 00:25:01.966313991,E4_Acc,2024-06-28 11:29:02.724009991,-60.0,-16.0,19.0
1904-01-01 00:25:01.997563991,E4_Acc,2024-06-28 11:29:02.755259991,-59.0,-16.0,19.0
1904-01-01 00:25:02.028824004,E4_Acc,2024-06-28 11:29:02.786520004,-59.0,-16.0,19.0
1904-01-01 00:25:02.060074004,E4_Acc,2024-06-28 11:29:02.817770004,-61.0,-16.0,19.0
1904-01-01 00:25:02.091324004,E4_Acc,2024-06-28 11:29:02.849020004,-59.0,-16.0,19.0
1904-01-01 00:25:02.122574004,E4_Acc,2024-06-28 11:29:02.880270004,-58.0,-16.0,20.0
1904-01-01 00:25:02.153824004,E4_Acc,2024-06-28 11:29:02.911520004,-60.0,-16.0,19.0
1904-01-01 00:25:02.185074004,E4_Acc,2024-06-28 11:29:02.942770004,-59.0,-15.0,19.0
1904-01-01 00:25:02.216324004,E4_Acc,2024-06-28 11:29:02.974020004,-59.0,-15.0,19.0
1904-01-01 00:25:02.247584018,E4_Acc,2024-06-28 11:29:03.005280018,-60.0,-15.0,19.0
1904-01-01 00:25:02.278834018,E4_Acc,2024-06-28 11:29:03.036530018,-60.0,-16.0,19.0
1904-01-01 00:25:02.310084018,E4_Acc,2024-06-28 11:29:03.067780018,-58.0,-16.0,19.0
1904-01-01 00:25:02.341334018,E4_Acc,2024-06-28 11:29:03.099030018,-58.0,-15.0,19.0
1904-01-01 00:25:02.372584018,E4_Acc,2024-06-28 11:29:03.130280018,-59.0,-15.0,19.0
1904-01-01 00:25:02.403834018,E4_Acc,2024-06-28 11:29:03.161530018,-60.0,-16.0,19.0
1904-01-01 00:25:02.435084018,E4_Acc,2024-06-28 11:29:03.192780018,-61.0,-16.0,19.0
1904-01-01 00:25:02.466344031,E4_Acc,2024-06-28 11:29:03.224040031,-58.0,-15.0,19.0
1904-01-01 00:25:02.497594030,E4_Acc,2024-06-28 11:29:03.255290030,-59.0,-16.0,19.0
1904-01-01 00:25:02.528844031,E4_Acc,2024-06-28 11:29:03.286540031,-59.0,-16.0,19.0
1904-01-01 00:25:02.560094031,E4_Acc,2024-06-28 11:29:03.317790031,-60.0,-16.0,19.0
1904-01-01 00:25:02.591344031,E4_Acc,2024-06-28 11:29:03.349040031,-58.0,-16.0,19.0
1904-01-01 00:25:02.622594031,E4_Acc,2024-06-28 11:29:03.380290031,-59.0,-15.0,19.0
1904-01-01 00:25:02.653844031,E4_Acc,2024-06-28 11:29:03.411540031,-60.0,-16.0,19.0
1904-01-01 00:25:02.685104045,E4_Acc,2024-06-28 11:29:03.442800045,-60.0,-16.0,19.0
1904-01-01 00:25:02.716354045,E4_Acc,2024-06-28 11:29:03.474050045,-59.0,-17.0,19.0
1904-01-01 00:25:02.747604045,E4_Acc,2024-06-28 11:29:03.505300045,-59.0,-16.0,19.0
1904-01-01 00:25:02.778854045,E4_Acc,2024-06-28 11:29:03.536550045,-58.0,-16.0,19.0
1904-01-01 00:25:02.810104045,E4_Acc,2024-06-28 11:29:03.567800045,-60.0,-16.0,19.0
1904-01-01 00:25:02.841354045,E4_Acc,2024-06-28 11:29:03.599050045,-60.0,-16.0,19.0
1904-01-01 00:25:02.872604045,E4_Acc,2024-06-28 11:29:03.630300045,-59.0,-16.0,19.0
1904-01-01 00:25:02.903864059,E4_Acc,2024-06-28 11:29:03.661560059,-60.0,-16.0,19.0
1904-01-01 00:25:02.935114059,E4_Acc,2024-06-28 11:29:03.692810059,-59.0,-16.0,19.0
1904-01-01 00:25:02.966364059,E4_Acc,2024-06-28 11:29:03.724060059,-59.0,-16.0,18.0
1904-01-01 00:25:02.997614059,E4_Acc,2024-06-28 11:29:03.755310059,-59.0,-16.0,19.0
1904-01-01 00:25:03.028864059,E4_Acc,2024-06-28 11:29:03.786560059,-60.0,-16.0,19.0
1904-01-01 00:25:03.060114059,E4_Acc,2024-06-28 11:29:03.817810059,-59.0,-16.0,19.0
1904-01-01 00:25:03.091364059,E4_Acc,2024-06-28 11:29:03.849060059,-59.0,-16.0,19.0
1904-01-01 00:25:03.122624072,E4_Acc,2024-06-28 11:29:03.880320072,-60.0,-16.0,19.0
1904-01-01 00:25:03.153874072,E4_Acc,2024-06-28 11:29:03.911570072,-60.0,-16.0,19.0
1904-01-01 00:25:03.185124072,E4_Acc,2024-06-28 11:29:03.942820072,-60.0,-16.0,19.0
1904-01-01 00:25:03.216374072,E4_Acc,2024-06-28 11:29:03.974070072,-59.0,-16.0,19.0
1904-01-01 00:25:03.247624072,E4_Acc,2024-06-28 11:29:04.005320072,-59.0,-16.0,19.0
1904-01-01 00:25:03.278874072,E4_Acc,2024-06-28 11:29:04.036570072,-59.0,-16.0,18.0
1904-01-01 00:25:03.310124072,E4_Acc,2024-06-28 11:29:04.067820072,-59.0,-16.0,18.0
1904-01-01 00:25:03.341384086,E4_Acc,2024-06-28 11:29:04.099080086,-59.0,-16.0,19.0
1904-01-01 00:25:03.372634086,E4_Acc,2024-06-28 11:29:04.130330086,-60.0,-16.0,19.0
1904-01-01 00:25:03.403884086,E4_Acc,2024-06-28 11:29:04.161580086,-59.0,-16.0,19.0
1904-01-01 00:25:03.435134086,E4_Acc,2024-06-28 11:29:04.192830086,-60.0,-16.0,19.0
1904-01-01 00:25:03.466384086,E4_Acc,2024-06-28 11:29:04.224080086,-60.0,-16.0,18.0
1904-01-01 00:25:03.497634086,E4_Acc,2024-06-28 11:29:04.255330086,-59.0,-16.0,18.0
1904-01-01 00:25:03.528884086,E4_Acc,2024-06-28 11:29:04.286580086,-58.0,-16.0,19.0
1904-01-01 00:25:03.560144099,E4_Acc,2024-06-28 11:29:04.317840099,-59.0,-16.0,19.0
1904-01-01 00:25:03.591394099,E4_Acc,2024-06-28 11:29:04.349090099,-60.0,-16.0,19.0
1904-01-01 00:25:03.622644099,E4_Acc,2024-06-28 11:29:04.380340099,-59.0,-16.0,19.0
1904-01-01 00:25:03.653894099,E4_Acc,2024-06-28 11:29:04.411590099,-59.0,-16.0,19.0
1904-01-01 00:25:03.685144099,E4_Acc,2024-06-28 11:29:04.442840099,-60.0,-16.0,19.0
1904-01-01 00:25:03.716394099,E4_Acc,2024-06-28 11:29:04.474090099,-59.0,-16.0,19.0
1904-01-01 00:25:03.747644099,E4_Acc,2024-06-28 11:29:04.505340099,-59.0,-16.0,19.0
1904-01-01 00:25:03.778904113,E4_Acc,2024-06-28 11:29:04.536600113,-60.0,-16.0,19.0
1904-01-01 00:25:03.810154113,E4_Acc,2024-06-28 11:29:04.567850113,-58.0,-16.0,19.0
1904-01-01 00:25:03.841404113,E4_Acc,2024-06-28 11:29:04.599100113,-59.0,-16.0,19.0
1904-01-01 00:25:03.872654113,E4_Acc,2024-06-28 11:29:04.630350113,-59.0,-16.0,19.0
1904-01-01 00:25:03.903904113,E4_Acc,2024-06-28 11:29:04.661600113,-59.0,-16.0,19.0
1904-01-01 00:25:03.935154113,E4_Acc,2024-06-28 11:29:04.692850113,-58.0,-16.0,19.0
1904-01-01 00:25:03.966413888,E4_Acc,2024-06-28 11:29:04.724109888,-60.0,-15.0,19.0
1904-01-01 00:25:03.997663888,E4_Acc,2024-06-28 11:29:04.755359888,-59.0,-15.0,19.0
1904-01-01 00:25:04.028913888,E4_Acc,2024-06-28 11:29:04.786609888,-59.0,-15.0,19.0
1904-01-01 00:25:04.060163888,E4_Acc,2024-06-28 11:29:04.817859888,-59.0,-15.0,19.0
1904-01-01 00:25:04.091413888,E4_Acc,2024-06-28 11:29:04.849109888,-60.0,-15.0,19.0
1904-01-01 00:25:04.122663888,E4_Acc,2024-06-28 11:29:04.880359888,-59.0,-15.0,19.0
1904-01-01 00:25:04.153913888,E4_Acc,2024-06-28 11:29:04.911609888,-59.0,-15.0,19.0
1904-01-01 00:25:04.185173902,E4_Acc,2024-06-28 11:29:04.942869902,-59.0,-16.0,19.0
1904-01-01 00:25:04.216423902,E4_Acc,2024-06-28 11:29:04.974119902,-59.0,-15.0,19.0
1904-01-01 00:25:04.247673902,E4_Acc,2024-06-28 11:29:05.005369902,-59.0,-15.0,19.0
1904-01-01 00:25:04.278923902,E4_Acc,2024-06-28 11:29:05.036619902,-61.0,-16.0,19.0
1904-01-01 00:25:04.310173902,E4_Acc,2024-06-28 11:29:05.067869902,-58.0,-16.0,19.0
1904-01-01 00:25:04.341423902,E4_Acc,2024-06-28 11:29:05.099119902,-58.0,-15.0,19.0
1904-01-01 00:25:04.372673902,E4_Acc,2024-06-28 11:29:05.130369902,-60.0,-16.0,18.0
1904-01-01 00:25:04.403933915,E4_Acc,2024-06-28 11:29:05.161629915,-60.0,-16.0,19.0
1904-01-01 00:25:04.435183915,E4_Acc,2024-06-28 11:29:05.192879915,-58.0,-15.0,19.0
1904-01-01 00:25:04.466433915,E4_Acc,2024-06-28 11:29:05.224129915,-60.0,-15.0,19.0
1904-01-01 00:25:04.497683915,E4_Acc,2024-06-28 11:29:05.255379915,-60.0,-15.0,19.0
1904-01-01 00:25:04.528933915,E4_Acc,2024-06-28 11:29:05.286629915,-59.0,-16.0,19.0
1904-01-01 00:25:04.560183915,E4_Acc,2024-06-28 11:29:05.317879915,-60.0,-16.0,19.0
1904-01-01 00:25:04.591433915,E4_Acc,2024-06-28 11:29:05.349129915,-59.0,-15.0,19.0
1904-01-01 00:25:04.622693929,E4_Acc,2024-06-28 11:29:05.380389929,-60.0,-16.0,19.0
1904-01-01 00:25:04.653943929,E4_Acc,2024-06-28 11:29:05.411639929,-59.0,-16.0,18.0
1904-01-01 00:25:04.685193929,E4_Acc,2024-06-28 11:29:05.442889929,-60.0,-16.0,18.0
1904-01-01 00:25:04.716443929,E4_Acc,2024-06-28 11:29:05.474139929,-59.0,-16.0,19.0
1904-01-01 00:25:04.747693929,E4_Acc,2024-06-28 11:29:05.505389929,-59.0,-16.0,19.0
1904-01-01 00:25:04.778943929,E4_Acc,2024-06-28 11:29:05.536639929,-60.0,-16.0,19.0
1904-01-01 00:25:04.810193929,E4_Acc,2024-06-28 11:29:05.567889929,-59.0,-16.0,19.0
1904-01-01 00:25:04.841453942,E4_Acc,2024-06-28 11:29:05.599149942,-60.0,-16.0,19.0
1904-01-01 00:25:04.872703942,E4_Acc,2024-06-28 11:29:05.630399942,-60.0,-16.0,19.0
1904-01-01 00:25:04.903953942,E4_Acc,2024-06-28 11:29:05.661649942,-59.0,-15.0,19.0
1904-01-01 00:25:04.935203942,E4_Acc,2024-06-28 11:29:05.692899942,-59.0,-15.0,19.0
1904-01-01 00:25:04.966453942,E4_Acc,2024-06-28 11:29:05.724149942,-59.0,-16.0,18.0
1904-01-01 00:25:04.997703942,E4_Acc,2024-06-28 11:29:05.755399942,-59.0,-15.0,19.0
1904-01-01 00:25:05.028953942,E4_Acc,2024-06-28 11:29:05.786649942,-60.0,-16.0,19.0
1904-01-01 00:25:05.060213956,E4_Acc,2024-06-28 11:29:05.817909956,-60.0,-16.0,19.0
1904-01-01 00:25:05.091463956,E4_Acc,2024-06-28 11:29:05.849159956,-59.0,-15.0,19.0
1904-01-01 00:25:05.122713956,E4_Acc,2024-06-28 11:29:05.880409956,-59.0,-15.0,19.0
1904-01-01 00:25:05.153963956,E4_Acc,2024-06-28 11:29:05.911659956,-59.0,-15.0,18.0
1904-01-01 00:25:05.185213956,E4_Acc,2024-06-28 11:29:05.942909956,-61.0,-16.0,19.0
1904-01-01 00:25:05.216463956,E4_Acc,2024-06-28 11:29:05.974159956,-60.0,-16.0,19.0
1904-01-01 00:25:05.247713956,E4_Acc,2024-06-28 11:29:06.005409956,-59.0,-15.0,19.0
1904-01-01 00:25:05.278973970,E4_Acc,2024-06-28 11:29:06.036669970,-59.0,-15.0,19.0
1904-01-01 00:25:05.310223970,E4_Acc,2024-06-28 11:29:06.067919970,-59.0,-16.0,19.0
1904-01-01 00:25:05.341473970,E4_Acc,2024-06-28 11:29:06.099169970,-60.0,-15.0,19.0
1904-01-01 00:25:05.372723970,E4_Acc,2024-06-28 11:29:06.130419970,-60.0,-15.0,19.0
1904-01-01 00:25:05.403973970,E4_Acc,2024-06-28 11:29:06.161669970,-58.0,-15.0,19.0
1904-01-01 00:25:05.435223970,E4_Acc,2024-06-28 11:29:06.192919970,-58.0,-15.0,20.0
1904-01-01 00:25:05.466473970,E4_Acc,2024-06-28 11:29:06.224169970,-61.0,-16.0,19.0
1904-01-01 00:25:05.497733983,E4_Acc,2024-06-28 11:29:06.255429983,-59.0,-15.0,20.0
1904-01-01 00:25:05.528983983,E4_Acc,2024-06-28 11:29:06.286679983,-59.0,-15.0,20.0
1904-01-01 00:25:05.560233983,E4_Acc,2024-06-28 11:29:06.317929983,-59.0,-15.0,19.0
1904-01-01 00:25:05.591483983,E4_Acc,2024-06-28 11:29:06.349179983,-59.0,-15.0,19.0
1904-01-01 00:25:05.622733983,E4_Acc,2024-06-28 11:29:06.380429983,-60.0,-16.0,19.0
1904-01-01 00:25:05.653983983,E4_Acc,2024-06-28 11:29:06.411679983,-60.0,-15.0,19.0
1904-01-01 00:25:05.685233983,E4_Acc,2024-06-28 11:29:06.442929983,-59.0,-15.0,20.0
1904-01-01 00:25:05.716493997,E4_Acc,2024-06-28 11:29:06.474189997,-59.0,-15.0,19.0
1904-01-01 00:25:05.747743997,E4_Acc,2024-06-28 11:29:06.505439997,-59.0,-16.0,19.0
1904-01-01 00:25:05.778993997,E4_Acc,2024-06-28 11:29:06.536689997,-60.0,-16.0,19.0
1904-01-01 00:25:05.810243997,E4_Acc,2024-06-28 11:29:06.567939997,-59.0,-16.0,19.0
1904-01-01 00:25:05.841493997,E4_Acc,2024-06-28 11:29:06.599189997,-59.0,-16.0,19.0
1904-01-01 00:25:05.872743997,E4_Acc,2024-06-28 11:29:06.630439997,-59.0,-16.0,19.0
1904-01-01 00:25:05.903993997,E4_Acc,2024-06-28 11:29:06.661689997,-60.0,-16.0,19.0
1904-01-01 00:25:05.935254010,E4_Acc,2024-06-28 11:29:06.692950010,-59.0,-16.0,19.0
1904-01-01 00:25:05.966504010,E4_Acc,2024-06-28 11:29:06.724200010,-58.0,-16.0,20.0
1904-01-01 00:25:05.997754010,E4_Acc,2024-06-28 11:29:06.755450010,-60.0,-16.0,19.0
1904-01-01 00:25:06.029004010,E4_Acc,2024-06-28 11:29:06.786700010,-59.0,-16.0,19.0
1904-01-01 00:25:06.060254010,E4_Acc,2024-06-28 11:29:06.817950010,-59.0,-15.0,19.0
1904-01-01 00:25:06.091504010,E4_Acc,2024-06-28 11:29:06.849200010,-60.0,-16.0,19.0
1904-01-01 00:25:06.122754010,E4_Acc,2024-06-28 11:29:06.880450010,-59.0,-16.0,20.0
1904-01-01 00:25:06.154014024,E4_Acc,2024-06-28 11:29:06.911710024,-58.0,-15.0,20.0
1904-01-01 00:25:06.185264024,E4_Acc,2024-06-28 11:29:06.942960024,-59.0,-16.0,20.0
1904-01-01 00:25:06.216514024,E4_Acc,2024-06-28 11:29:06.974210024,-60.0,-16.0,20.0
1904-01-01 00:25:06.247764024,E4_Acc,2024-06-28 11:29:07.005460024,-59.0,-15.0,20.0
1904-01-01 00:25:06.279014024,E4_Acc,2024-06-28 11:29:07.036710024,-59.0,-15.0,20.0
1904-01-01 00:25:06.310264024,E4_Acc,2024-06-28 11:29:07.067960024,-60.0,-15.0,19.0
1904-01-01 00:25:06.341524037,E4_Acc,2024-06-28 11:29:07.099220037,-60.0,-16.0,19.0
1904-01-01 00:25:06.372774037,E4_Acc,2024-06-28 11:29:07.130470037,-59.0,-16.0,20.0
1904-01-01 00:25:06.404024037,E4_Acc,2024-06-28 11:29:07.161720037,-59.0,-15.0,20.0
1904-01-01 00:25:06.435274037,E4_Acc,2024-06-28 11:29:07.192970037,-58.0,-15.0,20.0
1904-01-01 00:25:06.466524037,E4_Acc,2024-06-28 11:29:07.224220037,-59.0,-16.0,19.0
1904-01-01 00:25:06.497774036,E4_Acc,2024-06-28 11:29:07.255470036,-60.0,-16.0,19.0
1904-01-01 00:25:06.529024037,E4_Acc,2024-06-28 11:29:07.286720037,-59.0,-15.0,20.0
1904-01-01 00:25:06.560284051,E4_Acc,2024-06-28 11:29:07.317980051,-59.0,-15.0,20.0
1904-01-01 00:25:06.591534051,E4_Acc,2024-06-28 11:29:07.349230051,-60.0,-15.0,19.0
1904-01-01 00:25:06.622784051,E4_Acc,2024-06-28 11:29:07.380480051,-60.0,-16.0,19.0
1904-01-01 00:25:06.654034051,E4_Acc,2024-06-28 11:29:07.411730051,-59.0,-15.0,19.0
1904-01-01 00:25:06.685284051,E4_Acc,2024-06-28 11:29:07.442980051,-60.0,-15.0,19.0
1904-01-01 00:25:06.716534051,E4_Acc,2024-06-28 11:29:07.474230051,-60.0,-15.0,19.0
1904-01-01 00:25:06.747784051,E4_Acc,2024-06-28 11:29:07.505480051,-59.0,-15.0,20.0
1904-01-01 00:25:06.779044065,E4_Acc,2024-06-28 11:29:07.536740065,-60.0,-15.0,19.0
1904-01-01 00:25:06.810294065,E4_Acc,2024-06-28 11:29:07.567990065,-59.0,-15.0,19.0
1904-01-01 00:25:06.841544065,E4_Acc,2024-06-28 11:29:07.599240065,-60.0,-15.0,19.0
1904-01-01 00:25:06.872794065,E4_Acc,2024-06-28 11:29:07.630490065,-59.0,-15.0,19.0
1904-01-01 00:25:06.904044065,E4_Acc,2024-06-28 11:29:07.661740065,-59.0,-15.0,19.0
1904-01-01 00:25:06.935294065,E4_Acc,2024-06-28 11:29:07.692990065,-60.0,-15.0,19.0
1904-01-01 00:25:06.966544065,E4_Acc,2024-06-28 11:29:07.724240065,-59.0,-15.0,19.0
1904-01-01 00:25:06.997804078,E4_Acc,2024-06-28 11:29:07.755500078,-60.0,-16.0,19.0
1904-01-01 00:25:07.029054078,E4_Acc,2024-06-28 11:29:07.786750078,-60.0,-16.0,19.0
1904-01-01 00:25:07.060304078,E4_Acc,2024-06-28 11:29:07.818000078,-59.0,-16.0,19.0
1904-01-01 00:25:07.091554078,E4_Acc,2024-06-28 11:29:07.849250078,-59.0,-16.0,19.0
1904-01-01 00:25:07.122804078,E4_Acc,2024-06-28 11:29:07.880500078,-59.0,-17.0,19.0
1904-01-01 00:25:07.154054078,E4_Acc,2024-06-28 11:29:07.911750078,-59.0,-16.0,19.0
1904-01-01 00:25:07.185304078,E4_Acc,2024-06-28 11:29:07.943000078,-59.0,-16.0,19.0
1904-01-01 00:25:07.216564092,E4_Acc,2024-06-28 11:29:07.974260092,-59.0,-16.0,19.0
1904-01-01 00:25:07.247814092,E4_Acc,2024-06-28 11:29:08.005510092,-60.0,-16.0,19.0
1904-01-01 00:25:07.279064092,E4_Acc,2024-06-28 11:29:08.036760092,-60.0,-16.0,19.0
1904-01-01 00:25:07.310314092,E4_Acc,2024-06-28 11:29:08.068010092,-59.0,-16.0,19.0
1904-01-01 00:25:07.341564092,E4_Acc,2024-06-28 11:29:08.099260092,-59.0,-15.0,18.0
1904-01-01 00:25:07.372814092,E4_Acc,2024-06-28 11:29:08.130510092,-59.0,-16.0,18.0
1904-01-01 00:25:07.404064092,E4_Acc,2024-06-28 11:29:08.161760092,-60.0,-16.0,18.0
1904-01-01 00:25:07.435324105,E4_Acc,2024-06-28 11:29:08.193020105,-60.0,-16.0,18.0
1904-01-01 00:25:07.466574105,E4_Acc,2024-06-28 11:29:08.224270105,-59.0,-16.0,19.0
1904-01-01 00:25:07.497824105,E4_Acc,2024-06-28 11:29:08.255520105,-59.0,-16.0,18.0
1904-01-01 00:25:07.529074105,E4_Acc,2024-06-28 11:29:08.286770105,-59.0,-16.0,18.0
1904-01-01 00:25:07.560324105,E4_Acc,2024-06-28 11:29:08.318020105,-59.0,-16.0,18.0
1904-01-01 00:25:07.591574105,E4_Acc,2024-06-28 11:29:08.349270105,-60.0,-16.0,18.0
1904-01-01 00:25:07.622824105,E4_Acc,2024-06-28 11:29:08.380520105,-59.0,-16.0,19.0
1904-01-01 00:25:07.654084119,E4_Acc,2024-06-28 11:29:08.411780119,-60.0,-16.0,18.0
1904-01-01 00:25:07.685334119,E4_Acc,2024-06-28 11:29:08.443030119,-60.0,-16.0,18.0
1904-01-01 00:25:07.716584119,E4_Acc,2024-06-28 11:29:08.474280119,-60.0,-16.0,18.0
1904-01-01 00:25:07.747834119,E4_Acc,2024-06-28 11:29:08.505530119,-59.0,-16.0,18.0
1904-01-01 00:25:07.779084119,E4_Acc,2024-06-28 11:29:08.536780119,-59.0,-16.0,18.0
1904-01-01 00:25:07.810334119,E4_Acc,2024-06-28 11:29:08.568030119,-60.0,-16.0,18.0
1904-01-01 00:25:07.841584119,E4_Acc,2024-06-28 11:29:08.599280119,-60.0,-16.0,19.0
1904-01-01 00:25:07.872843894,E4_Acc,2024-06-28 11:29:08.630539894,-59.0,-16.0,19.0
1904-01-01 00:25:07.904093894,E4_Acc,2024-06-28 11:29:08.661789894,-59.0,-16.0,19.0
1904-01-01 00:25:07.935343894,E4_Acc,2024-06-28 11:29:08.693039894,-60.0,-16.0,18.0
1904-01-01 00:25:07.966593894,E4_Acc,2024-06-28 11:29:08.724289894,-60.0,-16.0,18.0
1904-01-01 00:25:07.997843894,E4_Acc,2024-06-28 11:29:08.755539894,-59.0,-15.0,19.0
1904-01-01 00:25:08.029093894,E4_Acc,2024-06-28 11:29:08.786789894,-59.0,-16.0,18.0
1904-01-01 00:25:08.060343894,E4_Acc,2024-06-28 11:29:08.818039894,-59.0,-16.0,19.0
1904-01-01 00:25:08.091603908,E4_Acc,2024-06-28 11:29:08.849299908,-59.0,-15.0,18.0
1904-01-01 00:25:08.122853908,E4_Acc,2024-06-28 11:29:08.880549908,-59.0,-15.0,19.0
1904-01-01 00:25:08.154103908,E4_Acc,2024-06-28 11:29:08.911799908,-59.0,-15.0,19.0
1904-01-01 00:25:08.185353908,E4_Acc,2024-06-28 11:29:08.943049908,-60.0,-15.0,19.0
1904-01-01 00:25:08.216603908,E4_Acc,2024-06-28 11:29:08.974299908,-60.0,-15.0,19.0
1904-01-01 00:25:08.247853908,E4_Acc,2024-06-28 11:29:09.005549908,-60.0,-15.0,19.0
1904-01-01 00:25:08.279103908,E4_Acc,2024-06-28 11:29:09.036799908,-59.0,-15.0,19.0
1904-01-01 00:25:08.310363921,E4_Acc,2024-06-28 11:29:09.068059921,-59.0,-15.0,19.0
1904-01-01 00:25:08.341613921,E4_Acc,2024-06-28 11:29:09.099309921,-59.0,-15.0,19.0
1904-01-01 00:25:08.372863921,E4_Acc,2024-06-28 11:29:09.130559921,-60.0,-15.0,19.0
1904-01-01 00:25:08.404113921,E4_Acc,2024-06-28 11:29:09.161809921,-59.0,-15.0,19.0
1904-01-01 00:25:08.435363921,E4_Acc,2024-06-28 11:29:09.193059921,-59.0,-15.0,19.0
1904-01-01 00:25:08.466613921,E4_Acc,2024-06-28 11:29:09.224309921,-59.0,-15.0,19.0
1904-01-01 00:25:08.497863921,E4_Acc,2024-06-28 11:29:09.255559921,-60.0,-16.0,19.0
1904-01-01 00:25:08.529123935,E4_Acc,2024-06-28 11:29:09.286819935,-59.0,-15.0,19.0
1904-01-01 00:25:08.560373935,E4_Acc,2024-06-28 11:29:09.318069935,-59.0,-15.0,18.0
1904-01-01 00:25:08.591623935,E4_Acc,2024-06-28 11:29:09.349319935,-59.0,-16.0,19.0
1904-01-01 00:25:08.622873935,E4_Acc,2024-06-28 11:29:09.380569935,-59.0,-16.0,19.0
1904-01-01 00:25:08.654123935,E4_Acc,2024-06-28 11:29:09.411819935,-59.0,-16.0,19.0
1904-01-01 00:25:08.685373935,E4_Acc,2024-06-28 11:29:09.443069935,-60.0,-16.0,18.0
1904-01-01 00:25:08.716623935,E4_Acc,2024-06-28 11:29:09.474319935,-59.0,-16.0,19.0
1904-01-01 00:25:08.747883947,E4_Acc,2024-06-28 11:29:09.505579947,-59.0,-16.0,19.0
1904-01-01 00:25:08.779133947,E4_Acc,2024-06-28 11:29:09.536829947,-59.0,-16.0,18.0
1904-01-01 00:25:08.810383948,E4_Acc,2024-06-28 11:29:09.568079948,-60.0,-16.0,18.0
1904-01-01 00:25:08.841633948,E4_Acc,2024-06-28 11:29:09.599329948,-60.0,-16.0,19.0
1904-01-01 00:25:08.872883948,E4_Acc,2024-06-28 11:29:09.630579948,-60.0,-16.0,19.0
1904-01-01 00:25:08.904133948,E4_Acc,2024-06-28 11:29:09.661829948,-59.0,-16.0,18.0
1904-01-01 00:25:08.935393962,E4_Acc,2024-06-28 11:29:09.693089962,-60.0,-16.0,18.0
1904-01-01 00:25:08.966643962,E4_Acc,2024-06-28 11:29:09.724339962,-60.0,-16.0,18.0
1904-01-01 00:25:08.997893962,E4_Acc,2024-06-28 11:29:09.755589962,-60.0,-16.0,18.0
1904-01-01 00:25:09.029143962,E4_Acc,2024-06-28 11:29:09.786839962,-60.0,-16.0,18.0
1904-01-01 00:25:09.060393962,E4_Acc,2024-06-28 11:29:09.818089962,-59.0,-16.0,18.0
1904-01-01 00:25:09.091643962,E4_Acc,2024-06-28 11:29:09.849339962,-59.0,-16.0,18.0
1904-01-01 00:25:09.122893962,E4_Acc,2024-06-28 11:29:09.880589962,-60.0,-16.0,18.0
1904-01-01 00:25:09.154153976,E4_Acc,2024-06-28 11:29:09.911849976,-60.0,-16.0,18.0
1904-01-01 00:25:09.185403976,E4_Acc,2024-06-28 11:29:09.943099976,-59.0,-15.0,18.0
1904-01-01 00:25:09.216653976,E4_Acc,2024-06-28 11:29:09.974349976,-59.0,-15.0,18.0
1904-01-01 00:25:09.247903976,E4_Acc,2024-06-28 11:29:10.005599976,-60.0,-16.0,18.0
1904-01-01 00:25:09.279153976,E4_Acc,2024-06-28 11:29:10.036849976,-60.0,-16.0,18.0
1904-01-01 00:25:09.310403976,E4_Acc,2024-06-28 11:29:10.068099976,-60.0,-16.0,18.0
1904-01-01 00:25:09.341653976,E4_Acc,2024-06-28 11:29:10.099349976,-59.0,-16.0,18.0
1904-01-01 00:25:09.372913989,E4_Acc,2024-06-28 11:29:10.130609989,-59.0,-16.0,18.0
1904-01-01 00:25:09.404163989,E4_Acc,2024-06-28 11:29:10.161859989,-60.0,-16.0,18.0
1904-01-01 00:25:09.435413989,E4_Acc,2024-06-28 11:29:10.193109989,-60.0,-16.0,18.0
1904-01-01 00:25:09.466663989,E4_Acc,2024-06-28 11:29:10.224359989,-60.0,-16.0,18.0
1904-01-01 00:25:09.497913988,E4_Acc,2024-06-28 11:29:10.255609988,-60.0,-16.0,18.0
1904-01-01 00:25:09.529163989,E4_Acc,2024-06-28 11:29:10.286859989,-60.0,-16.0,18.0
1904-01-01 00:25:09.560413989,E4_Acc,2024-06-28 11:29:10.318109989,-60.0,-16.0,18.0
1904-01-01 00:25:09.591674003,E4_Acc,2024-06-28 11:29:10.349370003,-60.0,-16.0,18.0
1904-01-01 00:25:09.622924003,E4_Acc,2024-06-28 11:29:10.380620003,-59.0,-16.0,19.0
1904-01-01 00:25:09.654174003,E4_Acc,2024-06-28 11:29:10.411870003,-60.0,-16.0,18.0
1904-01-01 00:25:09.685424003,E4_Acc,2024-06-28 11:29:10.443120003,-59.0,-16.0,18.0
1904-01-01 00:25:09.716674003,E4_Acc,2024-06-28 11:29:10.474370003,-59.0,-16.0,18.0
1904-01-01 00:25:09.747924003,E4_Acc,2024-06-28 11:29:10.505620003,-59.0,-16.0,18.0
1904-01-01 00:25:09.779174003,E4_Acc,2024-06-28 11:29:10.536870003,-61.0,-16.0,17.0
1904-01-01 00:25:09.810434016,E4_Acc,2024-06-28 11:29:10.568130016,-60.0,-16.0,18.0
1904-01-01 00:25:09.841684016,E4_Acc,2024-06-28 11:29:10.599380016,-59.0,-16.0,18.0
1904-01-01 00:25:09.872934016,E4_Acc,2024-06-28 11:29:10.630630016,-60.0,-17.0,17.0
1904-01-01 00:25:09.904184016,E4_Acc,2024-06-28 11:29:10.661880016,-60.0,-16.0,17.0
1904-01-01 00:25:09.935434016,E4_Acc,2024-06-28 11:29:10.693130016,-60.0,-16.0,17.0
1904-01-01 00:25:09.966684016,E4_Acc,2024-06-28 11:29:10.724380016,-60.0,-16.0,17.0
1904-01-01 00:25:09.997934016,E4_Acc,2024-06-28 11:29:10.755630016,-60.0,-16.0,18.0
1904-01-01 00:25:10.029194030,E4_Acc,2024-06-28 11:29:10.786890030,-60.0,-16.0,18.0
1904-01-01 00:25:10.060444030,E4_Acc,2024-06-28 11:29:10.818140030,-60.0,-16.0,17.0
1904-01-01 00:25:10.091694030,E4_Acc,2024-06-28 11:29:10.849390030,-60.0,-16.0,18.0
1904-01-01 00:25:10.122944030,E4_Acc,2024-06-28 11:29:10.880640030,-60.0,-16.0,18.0
1904-01-01 00:25:10.154194030,E4_Acc,2024-06-28 11:29:10.911890030,-60.0,-15.0,17.0
1904-01-01 00:25:10.185444030,E4_Acc,2024-06-28 11:29:10.943140030,-60.0,-16.0,17.0
1904-01-01 00:25:10.216694030,E4_Acc,2024-06-28 11:29:10.974390030,-60.0,-16.0,18.0
1904-01-01 00:25:10.247954043,E4_Acc,2024-06-28 11:29:11.005650043,-60.0,-16.0,18.0
1904-01-01 00:25:10.279204043,E4_Acc,2024-06-28 11:29:11.036900043,-60.0,-16.0,18.0
1904-01-01 00:25:10.310454043,E4_Acc,2024-06-28 11:29:11.068150043,-60.0,-16.0,17.0
1904-01-01 00:25:10.341704043,E4_Acc,2024-06-28 11:29:11.099400043,-60.0,-16.0,17.0
1904-01-01 00:25:10.372954043,E4_Acc,2024-06-28 11:29:11.130650043,-59.0,-16.0,18.0
1904-01-01 00:25:10.404204043,E4_Acc,2024-06-28 11:29:11.161900043,-59.0,-16.0,18.0
1904-01-01 00:25:10.435454043,E4_Acc,2024-06-28 11:29:11.193150043,-59.0,-16.0,18.0
1904-01-01 00:25:10.466714057,E4_Acc,2024-06-28 11:29:11.224410057,-60.0,-16.0,18.0
1904-01-01 00:25:10.497964057,E4_Acc,2024-06-28 11:29:11.255660057,-60.0,-16.0,18.0
1904-01-01 00:25:10.529214057,E4_Acc,2024-06-28 11:29:11.286910057,-59.0,-16.0,18.0
1904-01-01 00:25:10.560464057,E4_Acc,2024-06-28 11:29:11.318160057,-59.0,-16.0,18.0
1904-01-01 00:25:10.591714057,E4_Acc,2024-06-28 11:29:11.349410057,-60.0,-16.0,18.0
1904-01-01 00:25:10.622964057,E4_Acc,2024-06-28 11:29:11.380660057,-59.0,-16.0,18.0
1904-01-01 00:25:10.654214057,E4_Acc,2024-06-28 11:29:11.411910057,-59.0,-16.0,18.0
1904-01-01 00:25:10.685474071,E4_Acc,2024-06-28 11:29:11.443170071,-59.0,-15.0,18.0
1904-01-01 00:25:10.716724071,E4_Acc,2024-06-28 11:29:11.474420071,-61.0,-16.0,18.0
1904-01-01 00:25:10.747974071,E4_Acc,2024-06-28 11:29:11.505670071,-60.0,-16.0,18.0
1904-01-01 00:25:10.779224071,E4_Acc,2024-06-28 11:29:11.536920071,-58.0,-16.0,18.0
1904-01-01 00:25:10.810474071,E4_Acc,2024-06-28 11:29:11.568170071,-59.0,-16.0,18.0
1904-01-01 00:25:10.841724071,E4_Acc,2024-06-28 11:29:11.599420071,-60.0,-16.0,19.0
1904-01-01 00:25:10.872974071,E4_Acc,2024-06-28 11:29:11.630670071,-59.0,-16.0,19.0
1904-01-01 00:25:10.904234084,E4_Acc,2024-06-28 11:29:11.661930084,-59.0,-16.0,18.0
1904-01-01 00:25:10.935484084,E4_Acc,2024-06-28 11:29:11.693180084,-60.0,-16.0,18.0
1904-01-01 00:25:10.966734084,E4_Acc,2024-06-28 11:29:11.724430084,-59.0,-16.0,18.0
1904-01-01 00:25:10.997984084,E4_Acc,2024-06-28 11:29:11.755680084,-60.0,-16.0,18.0
1904-01-01 00:25:11.029234084,E4_Acc,2024-06-28 11:29:11.786930084,-60.0,-17.0,19.0
1904-01-01 00:25:11.060484084,E4_Acc,2024-06-28 11:29:11.818180084,-59.0,-16.0,19.0
1904-01-01 00:25:11.091734084,E4_Acc,2024-06-28 11:29:11.849430084,-59.0,-16.0,18.0
1904-01-01 00:25:11.122994098,E4_Acc,2024-06-28 11:29:11.880690098,-59.0,-16.0,18.0
1904-01-01 00:25:11.154244098,E4_Acc,2024-06-28 11:29:11.911940098,-60.0,-17.0,18.0
1904-01-01 00:25:11.185494098,E4_Acc,2024-06-28 11:29:11.943190098,-60.0,-16.0,18.0
1904-01-01 00:25:11.216744098,E4_Acc,2024-06-28 11:29:11.974440098,-60.0,-16.0,18.0
1904-01-01 00:25:11.247994098,E4_Acc,2024-06-28 11:29:12.005690098,-59.0,-17.0,18.0
1904-01-01 00:25:11.279244098,E4_Acc,2024-06-28 11:29:12.036940098,-60.0,-17.0,18.0
1904-01-01 00:25:11.310504111,E4_Acc,2024-06-28 11:29:12.068200111,-59.0,-17.0,18.0
1904-01-01 00:25:11.341754111,E4_Acc,2024-06-28 11:29:12.099450111,-59.0,-16.0,18.0
1904-01-01 00:25:11.373004111,E4_Acc,2024-06-28 11:29:12.130700111,-60.0,-16.0,18.0
1904-01-01 00:25:11.404254111,E4_Acc,2024-06-28 11:29:12.161950111,-60.0,-17.0,18.0
1904-01-01 00:25:11.435504111,E4_Acc,2024-06-28 11:29:12.193200111,-60.0,-17.0,17.0
1904-01-01 00:25:11.466754111,E4_Acc,2024-06-28 11:29:12.224450111,-59.0,-16.0,18.0
1904-01-01 00:25:11.498004111,E4_Acc,2024-06-28 11:29:12.255700111,-59.0,-17.0,18.0
1904-01-01 00:25:11.529263887,E4_Acc,2024-06-28 11:29:12.286959887,-60.0,-17.0,18.0
1904-01-01 00:25:11.560513887,E4_Acc,2024-06-28 11:29:12.318209887,-59.0,-16.0,18.0
1904-01-01 00:25:11.591763887,E4_Acc,2024-06-28 11:29:12.349459887,-59.0,-16.0,18.0
1904-01-01 00:25:11.623013887,E4_Acc,2024-06-28 11:29:12.380709887,-60.0,-15.0,18.0
1904-01-01 00:25:11.654263887,E4_Acc,2024-06-28 11:29:12.411959887,-61.0,-16.0,18.0
1904-01-01 00:25:11.685513887,E4_Acc,2024-06-28 11:29:12.443209887,-60.0,-16.0,18.0
1904-01-01 00:25:11.716763887,E4_Acc,2024-06-28 11:29:12.474459887,-59.0,-16.0,18.0
1904-01-01 00:25:11.748023900,E4_Acc,2024-06-28 11:29:12.505719900,-59.0,-16.0,18.0
1904-01-01 00:25:11.779273900,E4_Acc,2024-06-28 11:29:12.536969900,-60.0,-16.0,18.0
1904-01-01 00:25:11.810523900,E4_Acc,2024-06-28 11:29:12.568219900,-60.0,-16.0,18.0
1904-01-01 00:25:11.841773900,E4_Acc,2024-06-28 11:29:12.599469900,-60.0,-16.0,18.0
1904-01-01 00:25:11.873023900,E4_Acc,2024-06-28 11:29:12.630719900,-59.0,-17.0,19.0
1904-01-01 00:25:11.904273900,E4_Acc,2024-06-28 11:29:12.661969900,-60.0,-17.0,18.0
1904-01-01 00:25:11.935523900,E4_Acc,2024-06-28 11:29:12.693219900,-59.0,-16.0,18.0
1904-01-01 00:25:11.966783914,E4_Acc,2024-06-28 11:29:12.724479914,-59.0,-17.0,18.0
1904-01-01 00:25:11.998033914,E4_Acc,2024-06-28 11:29:12.755729914,-59.0,-16.0,19.0
1904-01-01 00:25:12.029283914,E4_Acc,2024-06-28 11:29:12.786979914,-59.0,-16.0,19.0
1904-01-01 00:25:12.060533914,E4_Acc,2024-06-28 11:29:12.818229914,-60.0,-16.0,19.0
1904-01-01 00:25:12.091783914,E4_Acc,2024-06-28 11:29:12.849479914,-60.0,-16.0,19.0
1904-01-01 00:25:12.123033914,E4_Acc,2024-06-28 11:29:12.880729914,-61.0,-15.0,19.0
1904-01-01 00:25:12.154283914,E4_Acc,2024-06-28 11:29:12.911979914,-61.0,-15.0,19.0
1904-01-01 00:25:12.185543927,E4_Acc,2024-06-28 11:29:12.943239927,-59.0,-14.0,19.0
1904-01-01 00:25:12.216793927,E4_Acc,2024-06-28 11:29:12.974489927,-59.0,-15.0,19.0
1904-01-01 00:25:12.248043927,E4_Acc,2024-06-28 11:29:13.005739927,-59.0,-15.0,18.0
1904-01-01 00:25:12.279293927,E4_Acc,2024-06-28 11:29:13.036989927,-59.0,-15.0,19.0
1904-01-01 00:25:12.310543927,E4_Acc,2024-06-28 11:29:13.068239927,-59.0,-14.0,19.0
1904-01-01 00:25:12.341793927,E4_Acc,2024-06-28 11:29:13.099489927,-60.0,-14.0,19.0
1904-01-01 00:25:12.373043927,E4_Acc,2024-06-28 11:29:13.130739927,-59.0,-14.0,19.0
1904-01-01 00:25:12.404303941,E4_Acc,2024-06-28 11:29:13.161999941,-58.0,-14.0,19.0
1904-01-01 00:25:12.435553941,E4_Acc,2024-06-28 11:29:13.193249941,-59.0,-15.0,19.0
1904-01-01 00:25:12.466803941,E4_Acc,2024-06-28 11:29:13.224499941,-59.0,-15.0,19.0
1904-01-01 00:25:12.498053940,E4_Acc,2024-06-28 11:29:13.255749940,-59.0,-15.0,20.0
1904-01-01 00:25:12.529303941,E4_Acc,2024-06-28 11:29:13.286999941,-60.0,-15.0,19.0
1904-01-01 00:25:12.560553941,E4_Acc,2024-06-28 11:29:13.318249941,-59.0,-15.0,19.0
1904-01-01 00:25:12.591803941,E4_Acc,2024-06-28 11:29:13.349499941,-60.0,-14.0,20.0
1904-01-01 00:25:12.623063954,E4_Acc,2024-06-28 11:29:13.380759954,-60.0,-14.0,20.0
1904-01-01 00:25:12.654313954,E4_Acc,2024-06-28 11:29:13.412009954,-60.0,-14.0,19.0
1904-01-01 00:25:12.685563954,E4_Acc,2024-06-28 11:29:13.443259954,-59.0,-15.0,19.0
1904-01-01 00:25:12.716813954,E4_Acc,2024-06-28 11:29:13.474509954,-59.0,-15.0,19.0
1904-01-01 00:25:12.748063953,E4_Acc,2024-06-28 11:29:13.505759953,-58.0,-15.0,20.0
1904-01-01 00:25:12.779313954,E4_Acc,2024-06-28 11:29:13.537009954,-59.0,-14.0,20.0
1904-01-01 00:25:12.810563954,E4_Acc,2024-06-28 11:29:13.568259954,-61.0,-15.0,19.0
1904-01-01 00:25:12.841823968,E4_Acc,2024-06-28 11:29:13.599519968,-60.0,-15.0,20.0
1904-01-01 00:25:12.873073968,E4_Acc,2024-06-28 11:29:13.630769968,-59.0,-14.0,20.0
1904-01-01 00:25:12.904323968,E4_Acc,2024-06-28 11:29:13.662019968,-59.0,-16.0,19.0
1904-01-01 00:25:12.935573968,E4_Acc,2024-06-28 11:29:13.693269968,-59.0,-16.0,19.0
1904-01-01 00:25:12.966823968,E4_Acc,2024-06-28 11:29:13.724519968,-59.0,-15.0,19.0
1904-01-01 00:25:12.998073968,E4_Acc,2024-06-28 11:29:13.755769968,-60.0,-15.0,19.0
1904-01-01 00:25:13.029323968,E4_Acc,2024-06-28 11:29:13.787019968,-60.0,-15.0,19.0
1904-01-01 00:25:13.060583982,E4_Acc,2024-06-28 11:29:13.818279982,-60.0,-16.0,19.0
1904-01-01 00:25:13.091833982,E4_Acc,2024-06-28 11:29:13.849529982,-58.0,-15.0,19.0
1904-01-01 00:25:13.123083982,E4_Acc,2024-06-28 11:29:13.880779982,-58.0,-15.0,18.0
1904-01-01 00:25:13.154333982,E4_Acc,2024-06-28 11:29:13.912029982,-59.0,-16.0,19.0
1904-01-01 00:25:13.185583982,E4_Acc,2024-06-28 11:29:13.943279982,-60.0,-16.0,19.0
1904-01-01 00:25:13.216833982,E4_Acc,2024-06-28 11:29:13.974529982,-59.0,-16.0,19.0
1904-01-01 00:25:13.248083982,E4_Acc,2024-06-28 11:29:14.005779982,-59.0,-16.0,19.0
1904-01-01 00:25:13.279343995,E4_Acc,2024-06-28 11:29:14.037039995,-59.0,-16.0,19.0
1904-01-01 00:25:13.310593995,E4_Acc,2024-06-28 11:29:14.068289995,-59.0,-16.0,18.0
1904-01-01 00:25:13.341843995,E4_Acc,2024-06-28 11:29:14.099539995,-59.0,-17.0,19.0
1904-01-01 00:25:13.373093994,E4_Acc,2024-06-28 11:29:14.130789994,-59.0,-16.0,18.0
1904-01-01 00:25:13.404343995,E4_Acc,2024-06-28 11:29:14.162039995,-59.0,-16.0,19.0
1904-01-01 00:25:13.435593995,E4_Acc,2024-06-28 11:29:14.193289995,-59.0,-16.0,19.0
1904-01-01 00:25:13.466854009,E4_Acc,2024-06-28 11:29:14.224550009,-60.0,-16.0,18.0
1904-01-01 00:25:13.498104009,E4_Acc,2024-06-28 11:29:14.255800009,-60.0,-16.0,18.0
1904-01-01 00:25:13.529354009,E4_Acc,2024-06-28 11:29:14.287050009,-60.0,-16.0,18.0
1904-01-01 00:25:13.560604009,E4_Acc,2024-06-28 11:29:14.318300009,-59.0,-16.0,18.0
1904-01-01 00:25:13.591854009,E4_Acc,2024-06-28 11:29:14.349550009,-59.0,-16.0,18.0
1904-01-01 00:25:13.623104009,E4_Acc,2024-06-28 11:29:14.380800009,-60.0,-16.0,19.0
1904-01-01 00:25:13.654354009,E4_Acc,2024-06-28 11:29:14.412050009,-60.0,-16.0,19.0
1904-01-01 00:25:13.685614022,E4_Acc,2024-06-28 11:29:14.443310022,-60.0,-16.0,18.0
1904-01-01 00:25:13.716864022,E4_Acc,2024-06-28 11:29:14.474560022,-60.0,-16.0,18.0
1904-01-01 00:25:13.748114022,E4_Acc,2024-06-28 11:29:14.505810022,-59.0,-16.0,18.0
1904-01-01 00:25:13.779364022,E4_Acc,2024-06-28 11:29:14.537060022,-60.0,-16.0,18.0
1904-01-01 00:25:13.810614022,E4_Acc,2024-06-28 11:29:14.568310022,-60.0,-16.0,19.0
1904-01-01 00:25:13.841864022,E4_Acc,2024-06-28 11:29:14.599560022,-60.0,-16.0,19.0
1904-01-01 00:25:13.873114022,E4_Acc,2024-06-28 11:29:14.630810022,-59.0,-16.0,19.0
1904-01-01 00:25:13.904374036,E4_Acc,2024-06-28 11:29:14.662070036,-60.0,-16.0,18.0
1904-01-01 00:25:13.935624036,E4_Acc,2024-06-28 11:29:14.693320036,-59.0,-16.0,18.0
1904-01-01 00:25:13.966874036,E4_Acc,2024-06-28 11:29:14.724570036,-60.0,-16.0,18.0
1904-01-01 00:25:13.998124036,E4_Acc,2024-06-28 11:29:14.755820036,-59.0,-16.0,18.0
1904-01-01 00:25:14.029374036,E4_Acc,2024-06-28 11:29:14.787070036,-60.0,-16.0,18.0
1904-01-01 00:25:14.060624036,E4_Acc,2024-06-28 11:29:14.818320036,-60.0,-16.0,18.0
1904-01-01 00:25:14.091874036,E4_Acc,2024-06-28 11:29:14.849570036,-60.0,-15.0,18.0
1904-01-01 00:25:14.123134050,E4_Acc,2024-06-28 11:29:14.880830050,-59.0,-15.0,18.0
1904-01-01 00:25:14.154384050,E4_Acc,2024-06-28 11:29:14.912080050,-60.0,-16.0,18.0
1904-01-01 00:25:14.185634050,E4_Acc,2024-06-28 11:29:14.943330050,-60.0,-16.0,18.0
1904-01-01 00:25:14.216884050,E4_Acc,2024-06-28 11:29:14.974580050,-59.0,-16.0,18.0
1904-01-01 00:25:14.248134050,E4_Acc,2024-06-28 11:29:15.005830050,-59.0,-15.0,18.0
1904-01-01 00:25:14.279384050,E4_Acc,2024-06-28 11:29:15.037080050,-59.0,-15.0,18.0
1904-01-01 00:25:14.310634050,E4_Acc,2024-06-28 11:29:15.068330050,-60.0,-16.0,18.0
1904-01-01 00:25:14.341894063,E4_Acc,2024-06-28 11:29:15.099590063,-59.0,-16.0,18.0
1904-01-01 00:25:14.373144063,E4_Acc,2024-06-28 11:29:15.130840063,-60.0,-16.0,18.0
1904-01-01 00:25:14.404394063,E4_Acc,2024-06-28 11:29:15.162090063,-59.0,-16.0,18.0
1904-01-01 00:25:14.435644063,E4_Acc,2024-06-28 11:29:15.193340063,-60.0,-16.0,18.0
1904-01-01 00:25:14.466894063,E4_Acc,2024-06-28 11:29:15.224590063,-60.0,-15.0,18.0
1904-01-01 00:25:14.498144063,E4_Acc,2024-06-28 11:29:15.255840063,-60.0,-15.0,18.0
1904-01-01 00:25:14.529394063,E4_Acc,2024-06-28 11:29:15.287090063,-60.0,-15.0,18.0
1904-01-01 00:25:14.560654077,E4_Acc,2024-06-28 11:29:15.318350077,-60.0,-16.0,18.0
1904-01-01 00:25:14.591904077,E4_Acc,2024-06-28 11:29:15.349600077,-59.0,-15.0,18.0
1904-01-01 00:25:14.623154077,E4_Acc,2024-06-28 11:29:15.380850077,-59.0,-15.0,18.0
1904-01-01 00:25:14.654404077,E4_Acc,2024-06-28 11:29:15.412100077,-60.0,-16.0,18.0
1904-01-01 00:25:14.685654077,E4_Acc,2024-06-28 11:29:15.443350077,-60.0,-15.0,18.0
1904-01-01 00:25:14.716904077,E4_Acc,2024-06-28 11:29:15.474600077,-60.0,-15.0,18.0
1904-01-01 00:25:14.748154076,E4_Acc,2024-06-28 11:29:15.505850076,-60.0,-16.0,18.0
1904-01-01 00:25:14.779414090,E4_Acc,2024-06-28 11:29:15.537110090,-60.0,-16.0,18.0
1904-01-01 00:25:14.810664090,E4_Acc,2024-06-28 11:29:15.568360090,-60.0,-16.0,18.0
1904-01-01 00:25:14.841914090,E4_Acc,2024-06-28 11:29:15.599610090,-60.0,-16.0,18.0
1904-01-01 00:25:14.873164090,E4_Acc,2024-06-28 11:29:15.630860090,-60.0,-16.0,18.0
1904-01-01 00:25:14.904414090,E4_Acc,2024-06-28 11:29:15.662110090,-60.0,-16.0,18.0
1904-01-01 00:25:14.935664090,E4_Acc,2024-06-28 11:29:15.693360090,-60.0,-15.0,18.0
1904-01-01 00:25:14.966914090,E4_Acc,2024-06-28 11:29:15.724610090,-59.0,-15.0,18.0
1904-01-01 00:25:14.998174104,E4_Acc,2024-06-28 11:29:15.755870104,-60.0,-16.0,18.0
1904-01-01 00:25:15.029424104,E4_Acc,2024-06-28 11:29:15.787120104,-60.0,-15.0,18.0
1904-01-01 00:25:15.060674104,E4_Acc,2024-06-28 11:29:15.818370104,-60.0,-15.0,18.0
1904-01-01 00:25:15.091924104,E4_Acc,2024-06-28 11:29:15.849620104,-60.0,-15.0,19.0
1904-01-01 00:25:15.123174104,E4_Acc,2024-06-28 11:29:15.880870104,-60.0,-15.0,19.0
1904-01-01 00:25:15.154424104,E4_Acc,2024-06-28 11:29:15.912120104,-60.0,-14.0,19.0
1904-01-01 00:25:15.185674104,E4_Acc,2024-06-28 11:29:15.943370104,-61.0,-15.0,19.0
1904-01-01 00:25:15.216934117,E4_Acc,2024-06-28 11:29:15.974630117,-60.0,-14.0,19.0
1904-01-01 00:25:15.248184117,E4_Acc,2024-06-28 11:29:16.005880117,-59.0,-15.0,19.0
1904-01-01 00:25:15.279434117,E4_Acc,2024-06-28 11:29:16.037130117,-59.0,-15.0,19.0
1904-01-01 00:25:15.310684117,E4_Acc,2024-06-28 11:29:16.068380117,-58.0,-15.0,19.0
1904-01-01 00:25:15.341934117,E4_Acc,2024-06-28 11:29:16.099630117,-59.0,-15.0,19.0
1904-01-01 00:25:15.373184116,E4_Acc,2024-06-28 11:29:16.130880116,-59.0,-15.0,20.0
1904-01-01 00:25:15.404434117,E4_Acc,2024-06-28 11:29:16.162130117,-59.0,-14.0,20.0
1904-01-01 00:25:15.435693893,E4_Acc,2024-06-28 11:29:16.193389893,-59.0,-14.0,19.0
1904-01-01 00:25:15.466943893,E4_Acc,2024-06-28 11:29:16.224639893,-60.0,-15.0,19.0
1904-01-01 00:25:15.498193892,E4_Acc,2024-06-28 11:29:16.255889892,-58.0,-15.0,20.0
1904-01-01 00:25:15.529443893,E4_Acc,2024-06-28 11:29:16.287139893,-59.0,-15.0,19.0
1904-01-01 00:25:15.560693893,E4_Acc,2024-06-28 11:29:16.318389893,-59.0,-15.0,19.0
1904-01-01 00:25:15.591943893,E4_Acc,2024-06-28 11:29:16.349639893,-59.0,-15.0,19.0
1904-01-01 00:25:15.623193893,E4_Acc,2024-06-28 11:29:16.380889893,-60.0,-15.0,19.0
1904-01-01 00:25:15.654453906,E4_Acc,2024-06-28 11:29:16.412149906,-59.0,-16.0,19.0
1904-01-01 00:25:15.685703906,E4_Acc,2024-06-28 11:29:16.443399906,-58.0,-15.0,19.0
1904-01-01 00:25:15.716953906,E4_Acc,2024-06-28 11:29:16.474649906,-59.0,-15.0,19.0
1904-01-01 00:25:15.748203906,E4_Acc,2024-06-28 11:29:16.505899906,-60.0,-15.0,19.0
1904-01-01 00:25:15.779453906,E4_Acc,2024-06-28 11:29:16.537149906,-60.0,-16.0,19.0
1904-01-01 00:25:15.810703906,E4_Acc,2024-06-28 11:29:16.568399906,-59.0,-16.0,19.0
1904-01-01 00:25:15.841953906,E4_Acc,2024-06-28 11:29:16.599649906,-58.0,-16.0,19.0
1904-01-01 00:25:15.873213920,E4_Acc,2024-06-28 11:29:16.630909920,-59.0,-16.0,19.0
1904-01-01 00:25:15.904463920,E4_Acc,2024-06-28 11:29:16.662159920,-59.0,-16.0,19.0
1904-01-01 00:25:15.935713920,E4_Acc,2024-06-28 11:29:16.693409920,-60.0,-16.0,19.0
1904-01-01 00:25:15.966963920,E4_Acc,2024-06-28 11:29:16.724659920,-60.0,-16.0,19.0
1904-01-01 00:25:15.998213920,E4_Acc,2024-06-28 11:29:16.755909920,-60.0,-16.0,18.0
1904-01-01 00:25:16.029463920,E4_Acc,2024-06-28 11:29:16.787159920,-60.0,-16.0,18.0
1904-01-01 00:25:16.060713920,E4_Acc,2024-06-28 11:29:16.818409920,-60.0,-16.0,18.0
1904-01-01 00:25:16.091973933,E4_Acc,2024-06-28 11:29:16.849669933,-59.0,-16.0,18.0
1904-01-01 00:25:16.123223933,E4_Acc,2024-06-28 11:29:16.880919933,-59.0,-16.0,18.0
1904-01-01 00:25:16.154473933,E4_Acc,2024-06-28 11:29:16.912169933,-60.0,-16.0,18.0
1904-01-01 00:25:16.185723933,E4_Acc,2024-06-28 11:29:16.943419933,-60.0,-16.0,18.0
1904-01-01 00:25:16.216973933,E4_Acc,2024-06-28 11:29:16.974669933,-59.0,-16.0,18.0
1904-01-01 00:25:16.248223933,E4_Acc,2024-06-28 11:29:17.005919933,-60.0,-16.0,17.0
1904-01-01 00:25:16.279483947,E4_Acc,2024-06-28 11:29:17.037179947,-60.0,-16.0,18.0
1904-01-01 00:25:16.310733947,E4_Acc,2024-06-28 11:29:17.068429947,-60.0,-16.0,17.0
1904-01-01 00:25:16.341983947,E4_Acc,2024-06-28 11:29:17.099679947,-59.0,-17.0,18.0
1904-01-01 00:25:16.373233946,E4_Acc,2024-06-28 11:29:17.130929946,-60.0,-16.0,18.0
1904-01-01 00:25:16.404483947,E4_Acc,2024-06-28 11:29:17.162179947,-60.0,-17.0,17.0
1904-01-01 00:25:16.435733947,E4_Acc,2024-06-28 11:29:17.193429947,-59.0,-16.0,18.0
1904-01-01 00:25:16.466983947,E4_Acc,2024-06-28 11:29:17.224679947,-60.0,-16.0,18.0
1904-01-01 00:25:16.498243960,E4_Acc,2024-06-28 11:29:17.255939960,-60.0,-17.0,17.0
1904-01-01 00:25:16.529493960,E4_Acc,2024-06-28 11:29:17.287189960,-60.0,-16.0,18.0
1904-01-01 00:25:16.560743960,E4_Acc,2024-06-28 11:29:17.318439960,-60.0,-16.0,18.0
1904-01-01 00:25:16.591993960,E4_Acc,2024-06-28 11:29:17.349689960,-59.0,-16.0,18.0
1904-01-01 00:25:16.623243960,E4_Acc,2024-06-28 11:29:17.380939960,-60.0,-16.0,18.0
1904-01-01 00:25:16.654493960,E4_Acc,2024-06-28 11:29:17.412189960,-60.0,-16.0,17.0
1904-01-01 00:25:16.685743960,E4_Acc,2024-06-28 11:29:17.443439960,-60.0,-16.0,17.0
1904-01-01 00:25:16.717003974,E4_Acc,2024-06-28 11:29:17.474699974,-59.0,-16.0,18.0
1904-01-01 00:25:16.748253973,E4_Acc,2024-06-28 11:29:17.505949973,-59.0,-15.0,18.0
1904-01-01 00:25:16.779503974,E4_Acc,2024-06-28 11:29:17.537199974,-60.0,-16.0,18.0
1904-01-01 00:25:16.810753974,E4_Acc,2024-06-28 11:29:17.568449974,-60.0,-16.0,18.0
1904-01-01 00:25:16.842003974,E4_Acc,2024-06-28 11:29:17.599699974,-60.0,-16.0,18.0
1904-01-01 00:25:16.873253974,E4_Acc,2024-06-28 11:29:17.630949974,-60.0,-15.0,18.0
1904-01-01 00:25:16.904503974,E4_Acc,2024-06-28 11:29:17.662199974,-59.0,-15.0,18.0
1904-01-01 00:25:16.935763988,E4_Acc,2024-06-28 11:29:17.693459988,-60.0,-15.0,18.0
1904-01-01 00:25:16.967013988,E4_Acc,2024-06-28 11:29:17.724709988,-60.0,-16.0,18.0
1904-01-01 00:25:16.998263988,E4_Acc,2024-06-28 11:29:17.755959988,-60.0,-16.0,18.0
1904-01-01 00:25:17.029513988,E4_Acc,2024-06-28 11:29:17.787209988,-60.0,-16.0,18.0
1904-01-01 00:25:17.060763988,E4_Acc,2024-06-28 11:29:17.818459988,-60.0,-16.0,18.0
1904-01-01 00:25:17.092013988,E4_Acc,2024-06-28 11:29:17.849709988,-60.0,-16.0,18.0
1904-01-01 00:25:17.123263988,E4_Acc,2024-06-28 11:29:17.880959988,-60.0,-16.0,18.0
1904-01-01 00:25:17.154524001,E4_Acc,2024-06-28 11:29:17.912220001,-60.0,-15.0,18.0
1904-01-01 00:25:17.185774001,E4_Acc,2024-06-28 11:29:17.943470001,-60.0,-16.0,18.0
1904-01-01 00:25:17.217024001,E4_Acc,2024-06-28 11:29:17.974720001,-60.0,-16.0,18.0
1904-01-01 00:25:17.248274001,E4_Acc,2024-06-28 11:29:18.005970001,-60.0,-15.0,18.0
1904-01-01 00:25:17.279524001,E4_Acc,2024-06-28 11:29:18.037220001,-60.0,-16.0,18.0
1904-01-01 00:25:17.310774001,E4_Acc,2024-06-28 11:29:18.068470001,-59.0,-16.0,18.0
1904-01-01 00:25:17.342024001,E4_Acc,2024-06-28 11:29:18.099720001,-58.0,-15.0,18.0
1904-01-01 00:25:17.373284015,E4_Acc,2024-06-28 11:29:18.130980015,-59.0,-15.0,18.0
1904-01-01 00:25:17.404534015,E4_Acc,2024-06-28 11:29:18.162230015,-60.0,-16.0,18.0
1904-01-01 00:25:17.435784015,E4_Acc,2024-06-28 11:29:18.193480015,-60.0,-15.0,19.0
1904-01-01 00:25:17.467034015,E4_Acc,2024-06-28 11:29:18.224730015,-59.0,-15.0,19.0
1904-01-01 00:25:17.498284015,E4_Acc,2024-06-28 11:29:18.255980015,-60.0,-15.0,18.0
1904-01-01 00:25:17.529534015,E4_Acc,2024-06-28 11:29:18.287230015,-59.0,-15.0,18.0
1904-01-01 00:25:17.560784015,E4_Acc,2024-06-28 11:29:18.318480015,-59.0,-15.0,18.0
1904-01-01 00:25:17.592044028,E4_Acc,2024-06-28 11:29:18.349740028,-60.0,-15.0,18.0
1904-01-01 00:25:17.623294028,E4_Acc,2024-06-28 11:29:18.380990028,-60.0,-15.0,18.0
1904-01-01 00:25:17.654544028,E4_Acc,2024-06-28 11:29:18.412240028,-59.0,-15.0,18.0
1904-01-01 00:25:17.685794028,E4_Acc,2024-06-28 11:29:18.443490028,-59.0,-15.0,18.0
