Seconds,Stream,E4_Seconds,AccX,AccY,AccZ
1904-01-01 00:18:32.253475064,E4_Acc,2024-06-25 13:58:04.583790064,-23.0,-59.0,13.0
1904-01-01 00:18:32.284725064,E4_Acc,2024-06-25 13:58:04.615040064,-23.0,-59.0,13.0
1904-01-01 00:18:32.315975064,E4_Acc,2024-06-25 13:58:04.646290064,-23.0,-59.0,13.0
1904-01-01 00:18:32.347225064,E4_Acc,2024-06-25 13:58:04.677540064,-23.0,-59.0,13.0
1904-01-01 00:18:32.378475064,E4_Acc,2024-06-25 13:58:04.708790064,-23.0,-59.0,13.0
1904-01-01 00:18:32.409725064,E4_Acc,2024-06-25 13:58:04.740040064,-24.0,-59.0,13.0
1904-01-01 00:18:32.440985077,E4_Acc,2024-06-25 13:58:04.771300077,-24.0,-58.0,14.0
1904-01-01 00:18:32.472235077,E4_Acc,2024-06-25 13:58:04.802550077,-24.0,-59.0,14.0
1904-01-01 00:18:32.503485077,E4_Acc,2024-06-25 13:58:04.833800077,-25.0,-59.0,14.0
1904-01-01 00:18:32.534735077,E4_Acc,2024-06-25 13:58:04.865050077,-25.0,-59.0,14.0
1904-01-01 00:18:32.565985077,E4_Acc,2024-06-25 13:58:04.896300077,-24.0,-58.0,14.0
1904-01-01 00:18:32.597235077,E4_Acc,2024-06-25 13:58:04.927550077,-24.0,-58.0,14.0
1904-01-01 00:18:32.628485077,E4_Acc,2024-06-25 13:58:04.958800077,-24.0,-59.0,13.0
1904-01-01 00:18:32.659745091,E4_Acc,2024-06-25 13:58:04.990060091,-24.0,-59.0,13.0
1904-01-01 00:18:32.690995091,E4_Acc,2024-06-25 13:58:05.021310091,-24.0,-59.0,13.0
1904-01-01 00:18:32.722245091,E4_Acc,2024-06-25 13:58:05.052560091,-24.0,-59.0,13.0
1904-01-01 00:18:32.753495091,E4_Acc,2024-06-25 13:58:05.083810091,-24.0,-58.0,13.0
1904-01-01 00:18:32.784745091,E4_Acc,2024-06-25 13:58:05.115060091,-24.0,-58.0,13.0
1904-01-01 00:18:32.815995091,E4_Acc,2024-06-25 13:58:05.146310091,-25.0,-58.0,13.0
1904-01-01 00:18:32.847245091,E4_Acc,2024-06-25 13:58:05.177560091,-24.0,-59.0,13.0
1904-01-01 00:18:32.878505105,E4_Acc,2024-06-25 13:58:05.208820105,-25.0,-58.0,14.0
1904-01-01 00:18:32.909755105,E4_Acc,2024-06-25 13:58:05.240070105,-25.0,-58.0,14.0
1904-01-01 00:18:32.941005105,E4_Acc,2024-06-25 13:58:05.271320105,-25.0,-58.0,14.0
1904-01-01 00:18:32.972255105,E4_Acc,2024-06-25 13:58:05.302570105,-25.0,-58.0,14.0
1904-01-01 00:18:33.003505105,E4_Acc,2024-06-25 13:58:05.333820105,-25.0,-58.0,14.0
1904-01-01 00:18:33.034755105,E4_Acc,2024-06-25 13:58:05.365070105,-25.0,-58.0,14.0
1904-01-01 00:18:33.066005105,E4_Acc,2024-06-25 13:58:05.396320105,-25.0,-58.0,14.0
1904-01-01 00:18:33.097265118,E4_Acc,2024-06-25 13:58:05.427580118,-25.0,-58.0,14.0
1904-01-01 00:18:33.128515118,E4_Acc,2024-06-25 13:58:05.458830118,-25.0,-58.0,14.0
1904-01-01 00:18:33.159765118,E4_Acc,2024-06-25 13:58:05.490080118,-25.0,-58.0,14.0
1904-01-01 00:18:33.191015117,E4_Acc,2024-06-25 13:58:05.521330117,-25.0,-58.0,14.0
1904-01-01 00:18:33.222265118,E4_Acc,2024-06-25 13:58:05.552580118,-25.0,-59.0,13.0
1904-01-01 00:18:33.253515118,E4_Acc,2024-06-25 13:58:05.583830118,-25.0,-59.0,14.0
1904-01-01 00:18:33.284765118,E4_Acc,2024-06-25 13:58:05.615080118,-25.0,-59.0,14.0
1904-01-01 00:18:33.316024893,E4_Acc,2024-06-25 13:58:05.646339893,-25.0,-59.0,13.0
1904-01-01 00:18:33.347274893,E4_Acc,2024-06-25 13:58:05.677589893,-24.0,-58.0,13.0
1904-01-01 00:18:33.378524893,E4_Acc,2024-06-25 13:58:05.708839893,-24.0,-58.0,13.0
1904-01-01 00:18:33.409774893,E4_Acc,2024-06-25 13:58:05.740089893,-24.0,-59.0,13.0
1904-01-01 00:18:33.441024893,E4_Acc,2024-06-25 13:58:05.771339893,-24.0,-59.0,13.0
1904-01-01 00:18:33.472274893,E4_Acc,2024-06-25 13:58:05.802589893,-24.0,-59.0,13.0
1904-01-01 00:18:33.503524893,E4_Acc,2024-06-25 13:58:05.833839893,-24.0,-59.0,13.0
1904-01-01 00:18:33.534784907,E4_Acc,2024-06-25 13:58:05.865099907,-25.0,-58.0,13.0
1904-01-01 00:18:33.566034907,E4_Acc,2024-06-25 13:58:05.896349907,-25.0,-58.0,13.0
1904-01-01 00:18:33.597284907,E4_Acc,2024-06-25 13:58:05.927599907,-25.0,-59.0,13.0
1904-01-01 00:18:33.628534907,E4_Acc,2024-06-25 13:58:05.958849907,-25.0,-59.0,14.0
1904-01-01 00:18:33.659784907,E4_Acc,2024-06-25 13:58:05.990099907,-25.0,-59.0,13.0
1904-01-01 00:18:33.691034907,E4_Acc,2024-06-25 13:58:06.021349907,-25.0,-58.0,13.0
1904-01-01 00:18:33.722284907,E4_Acc,2024-06-25 13:58:06.052599907,-25.0,-59.0,13.0
1904-01-01 00:18:33.753544921,E4_Acc,2024-06-25 13:58:06.083859921,-24.0,-58.0,13.0
1904-01-01 00:18:33.784794921,E4_Acc,2024-06-25 13:58:06.115109921,-25.0,-59.0,13.0
1904-01-01 00:18:33.816044921,E4_Acc,2024-06-25 13:58:06.146359921,-25.0,-59.0,13.0
1904-01-01 00:18:33.847294921,E4_Acc,2024-06-25 13:58:06.177609921,-24.0,-59.0,13.0
1904-01-01 00:18:33.878544921,E4_Acc,2024-06-25 13:58:06.208859921,-25.0,-59.0,13.0
1904-01-01 00:18:33.909794921,E4_Acc,2024-06-25 13:58:06.240109921,-24.0,-59.0,13.0
1904-01-01 00:18:33.941044921,E4_Acc,2024-06-25 13:58:06.271359921,-24.0,-59.0,13.0
1904-01-01 00:18:33.972304934,E4_Acc,2024-06-25 13:58:06.302619934,-24.0,-59.0,13.0
1904-01-01 00:18:34.003554934,E4_Acc,2024-06-25 13:58:06.333869934,-24.0,-59.0,13.0
1904-01-01 00:18:34.034804934,E4_Acc,2024-06-25 13:58:06.365119934,-24.0,-59.0,13.0
1904-01-01 00:18:34.066054934,E4_Acc,2024-06-25 13:58:06.396369934,-24.0,-59.0,13.0
1904-01-01 00:18:34.097304934,E4_Acc,2024-06-25 13:58:06.427619934,-24.0,-58.0,13.0
1904-01-01 00:18:34.128554934,E4_Acc,2024-06-25 13:58:06.458869934,-24.0,-59.0,13.0
1904-01-01 00:18:34.159804934,E4_Acc,2024-06-25 13:58:06.490119934,-24.0,-59.0,13.0
1904-01-01 00:18:34.191064948,E4_Acc,2024-06-25 13:58:06.521379948,-24.0,-59.0,13.0
1904-01-01 00:18:34.222314948,E4_Acc,2024-06-25 13:58:06.552629948,-24.0,-59.0,13.0
1904-01-01 00:18:34.253564948,E4_Acc,2024-06-25 13:58:06.583879948,-24.0,-59.0,13.0
1904-01-01 00:18:34.284814948,E4_Acc,2024-06-25 13:58:06.615129948,-24.0,-59.0,13.0
1904-01-01 00:18:34.316064948,E4_Acc,2024-06-25 13:58:06.646379948,-24.0,-58.0,13.0
1904-01-01 00:18:34.347314948,E4_Acc,2024-06-25 13:58:06.677629948,-24.0,-59.0,12.0
1904-01-01 00:18:34.378564948,E4_Acc,2024-06-25 13:58:06.708879948,-24.0,-59.0,13.0
1904-01-01 00:18:34.409824961,E4_Acc,2024-06-25 13:58:06.740139961,-24.0,-59.0,13.0
1904-01-01 00:18:34.441074961,E4_Acc,2024-06-25 13:58:06.771389961,-24.0,-59.0,13.0
1904-01-01 00:18:34.472324961,E4_Acc,2024-06-25 13:58:06.802639961,-24.0,-59.0,13.0
1904-01-01 00:18:34.503574961,E4_Acc,2024-06-25 13:58:06.833889961,-24.0,-59.0,13.0
1904-01-01 00:18:34.534824961,E4_Acc,2024-06-25 13:58:06.865139961,-24.0,-59.0,13.0
1904-01-01 00:18:34.566074961,E4_Acc,2024-06-25 13:58:06.896389961,-24.0,-59.0,13.0
1904-01-01 00:18:34.597334975,E4_Acc,2024-06-25 13:58:06.927649975,-24.0,-59.0,13.0
1904-01-01 00:18:34.628584975,E4_Acc,2024-06-25 13:58:06.958899975,-24.0,-58.0,13.0
1904-01-01 00:18:34.659834975,E4_Acc,2024-06-25 13:58:06.990149975,-24.0,-59.0,13.0
1904-01-01 00:18:34.691084975,E4_Acc,2024-06-25 13:58:07.021399975,-24.0,-59.0,13.0
1904-01-01 00:18:34.722334975,E4_Acc,2024-06-25 13:58:07.052649975,-24.0,-59.0,13.0
1904-01-01 00:18:34.753584975,E4_Acc,2024-06-25 13:58:07.083899975,-24.0,-59.0,13.0
1904-01-01 00:18:34.784834975,E4_Acc,2024-06-25 13:58:07.115149975,-24.0,-59.0,13.0
1904-01-01 00:18:34.816094988,E4_Acc,2024-06-25 13:58:07.146409988,-24.0,-59.0,13.0
1904-01-01 00:18:34.847344988,E4_Acc,2024-06-25 13:58:07.177659988,-25.0,-59.0,14.0
1904-01-01 00:18:34.878594988,E4_Acc,2024-06-25 13:58:07.208909988,-25.0,-59.0,14.0
1904-01-01 00:18:34.909844988,E4_Acc,2024-06-25 13:58:07.240159988,-25.0,-59.0,14.0
1904-01-01 00:18:34.941094988,E4_Acc,2024-06-25 13:58:07.271409988,-25.0,-59.0,14.0
1904-01-01 00:18:34.972344988,E4_Acc,2024-06-25 13:58:07.302659988,-25.0,-59.0,14.0
1904-01-01 00:18:35.003594988,E4_Acc,2024-06-25 13:58:07.333909988,-25.0,-59.0,14.0
1904-01-01 00:18:35.034855002,E4_Acc,2024-06-25 13:58:07.365170002,-24.0,-58.0,13.0
1904-01-01 00:18:35.066105002,E4_Acc,2024-06-25 13:58:07.396420002,-24.0,-59.0,13.0
1904-01-01 00:18:35.097355002,E4_Acc,2024-06-25 13:58:07.427670002,-24.0,-58.0,13.0
1904-01-01 00:18:35.128605002,E4_Acc,2024-06-25 13:58:07.458920002,-24.0,-58.0,13.0
1904-01-01 00:18:35.159855002,E4_Acc,2024-06-25 13:58:07.490170002,-24.0,-59.0,13.0
1904-01-01 00:18:35.191105002,E4_Acc,2024-06-25 13:58:07.521420002,-25.0,-58.0,13.0
1904-01-01 00:18:35.222355002,E4_Acc,2024-06-25 13:58:07.552670002,-25.0,-58.0,13.0
1904-01-01 00:18:35.253615016,E4_Acc,2024-06-25 13:58:07.583930016,-25.0,-58.0,13.0
1904-01-01 00:18:35.284865016,E4_Acc,2024-06-25 13:58:07.615180016,-25.0,-58.0,13.0
1904-01-01 00:18:35.316115016,E4_Acc,2024-06-25 13:58:07.646430016,-25.0,-59.0,13.0
1904-01-01 00:18:35.347365016,E4_Acc,2024-06-25 13:58:07.677680016,-25.0,-58.0,13.0
1904-01-01 00:18:35.378615016,E4_Acc,2024-06-25 13:58:07.708930016,-25.0,-58.0,13.0
1904-01-01 00:18:35.409865016,E4_Acc,2024-06-25 13:58:07.740180016,-25.0,-58.0,13.0
1904-01-01 00:18:35.441115016,E4_Acc,2024-06-25 13:58:07.771430016,-25.0,-58.0,13.0
1904-01-01 00:18:35.472375029,E4_Acc,2024-06-25 13:58:07.802690029,-25.0,-58.0,13.0
1904-01-01 00:18:35.503625029,E4_Acc,2024-06-25 13:58:07.833940029,-25.0,-59.0,13.0
1904-01-01 00:18:35.534875029,E4_Acc,2024-06-25 13:58:07.865190029,-25.0,-59.0,13.0
1904-01-01 00:18:35.566125029,E4_Acc,2024-06-25 13:58:07.896440029,-25.0,-59.0,13.0
1904-01-01 00:18:35.597375029,E4_Acc,2024-06-25 13:58:07.927690029,-25.0,-58.0,14.0
1904-01-01 00:18:35.628625029,E4_Acc,2024-06-25 13:58:07.958940029,-24.0,-58.0,13.0
1904-01-01 00:18:35.659875029,E4_Acc,2024-06-25 13:58:07.990190029,-24.0,-59.0,13.0
1904-01-01 00:18:35.691135043,E4_Acc,2024-06-25 13:58:08.021450043,-24.0,-59.0,14.0
1904-01-01 00:18:35.722385043,E4_Acc,2024-06-25 13:58:08.052700043,-24.0,-59.0,13.0
1904-01-01 00:18:35.753635043,E4_Acc,2024-06-25 13:58:08.083950043,-25.0,-59.0,13.0
1904-01-01 00:18:35.784885043,E4_Acc,2024-06-25 13:58:08.115200043,-24.0,-59.0,13.0
1904-01-01 00:18:35.816135043,E4_Acc,2024-06-25 13:58:08.146450043,-24.0,-59.0,13.0
1904-01-01 00:18:35.847385043,E4_Acc,2024-06-25 13:58:08.177700043,-24.0,-58.0,13.0
1904-01-01 00:18:35.878635043,E4_Acc,2024-06-25 13:58:08.208950043,-24.0,-58.0,13.0
1904-01-01 00:18:35.909895056,E4_Acc,2024-06-25 13:58:08.240210056,-24.0,-59.0,13.0
1904-01-01 00:18:35.941145056,E4_Acc,2024-06-25 13:58:08.271460056,-24.0,-59.0,13.0
1904-01-01 00:18:35.972395056,E4_Acc,2024-06-25 13:58:08.302710056,-24.0,-59.0,13.0
1904-01-01 00:18:36.003645056,E4_Acc,2024-06-25 13:58:08.333960056,-24.0,-59.0,13.0
1904-01-01 00:18:36.034895056,E4_Acc,2024-06-25 13:58:08.365210056,-23.0,-58.0,13.0
1904-01-01 00:18:36.066145056,E4_Acc,2024-06-25 13:58:08.396460056,-23.0,-58.0,13.0
1904-01-01 00:18:36.097395056,E4_Acc,2024-06-25 13:58:08.427710056,-23.0,-58.0,12.0
1904-01-01 00:18:36.128655070,E4_Acc,2024-06-25 13:58:08.458970070,-23.0,-59.0,13.0
1904-01-01 00:18:36.159905070,E4_Acc,2024-06-25 13:58:08.490220070,-23.0,-60.0,12.0
1904-01-01 00:18:36.191155070,E4_Acc,2024-06-25 13:58:08.521470070,-24.0,-60.0,13.0
1904-01-01 00:18:36.222405070,E4_Acc,2024-06-25 13:58:08.552720070,-24.0,-59.0,13.0
1904-01-01 00:18:36.253655070,E4_Acc,2024-06-25 13:58:08.583970070,-24.0,-59.0,13.0
1904-01-01 00:18:36.284905070,E4_Acc,2024-06-25 13:58:08.615220070,-24.0,-58.0,13.0
1904-01-01 00:18:36.316155070,E4_Acc,2024-06-25 13:58:08.646470070,-25.0,-58.0,14.0
1904-01-01 00:18:36.347415083,E4_Acc,2024-06-25 13:58:08.677730083,-26.0,-59.0,13.0
1904-01-01 00:18:36.378665083,E4_Acc,2024-06-25 13:58:08.708980083,-26.0,-59.0,14.0
1904-01-01 00:18:36.409915083,E4_Acc,2024-06-25 13:58:08.740230083,-26.0,-59.0,14.0
1904-01-01 00:18:36.441165083,E4_Acc,2024-06-25 13:58:08.771480083,-26.0,-58.0,13.0
1904-01-01 00:18:36.472415083,E4_Acc,2024-06-25 13:58:08.802730083,-26.0,-58.0,14.0
1904-01-01 00:18:36.503665083,E4_Acc,2024-06-25 13:58:08.833980083,-25.0,-58.0,13.0
1904-01-01 00:18:36.534915083,E4_Acc,2024-06-25 13:58:08.865230083,-25.0,-59.0,13.0
1904-01-01 00:18:36.566175097,E4_Acc,2024-06-25 13:58:08.896490097,-25.0,-59.0,13.0
1904-01-01 00:18:36.597425097,E4_Acc,2024-06-25 13:58:08.927740097,-24.0,-59.0,13.0
1904-01-01 00:18:36.628675097,E4_Acc,2024-06-25 13:58:08.958990097,-24.0,-59.0,13.0
1904-01-01 00:18:36.659925097,E4_Acc,2024-06-25 13:58:08.990240097,-23.0,-59.0,13.0
1904-01-01 00:18:36.691175097,E4_Acc,2024-06-25 13:58:09.021490097,-23.0,-59.0,12.0
1904-01-01 00:18:36.722425097,E4_Acc,2024-06-25 13:58:09.052740097,-23.0,-59.0,13.0
1904-01-01 00:18:36.753685111,E4_Acc,2024-06-25 13:58:09.084000111,-23.0,-59.0,12.0
1904-01-01 00:18:36.784935111,E4_Acc,2024-06-25 13:58:09.115250111,-24.0,-59.0,13.0
1904-01-01 00:18:36.816185111,E4_Acc,2024-06-25 13:58:09.146500111,-24.0,-59.0,13.0
1904-01-01 00:18:36.847435111,E4_Acc,2024-06-25 13:58:09.177750111,-24.0,-59.0,13.0
1904-01-01 00:18:36.878685111,E4_Acc,2024-06-25 13:58:09.209000111,-25.0,-58.0,13.0
1904-01-01 00:18:36.909935111,E4_Acc,2024-06-25 13:58:09.240250111,-25.0,-58.0,13.0
1904-01-01 00:18:36.941185111,E4_Acc,2024-06-25 13:58:09.271500111,-26.0,-58.0,14.0
1904-01-01 00:18:36.972444886,E4_Acc,2024-06-25 13:58:09.302759886,-26.0,-58.0,13.0
1904-01-01 00:18:37.003694886,E4_Acc,2024-06-25 13:58:09.334009886,-26.0,-58.0,13.0
1904-01-01 00:18:37.034944886,E4_Acc,2024-06-25 13:58:09.365259886,-26.0,-58.0,14.0
1904-01-01 00:18:37.066194886,E4_Acc,2024-06-25 13:58:09.396509886,-26.0,-58.0,13.0
1904-01-01 00:18:37.097444886,E4_Acc,2024-06-25 13:58:09.427759886,-25.0,-58.0,13.0
1904-01-01 00:18:37.128694886,E4_Acc,2024-06-25 13:58:09.459009886,-25.0,-58.0,13.0
1904-01-01 00:18:37.159944886,E4_Acc,2024-06-25 13:58:09.490259886,-25.0,-59.0,13.0
1904-01-01 00:18:37.191204898,E4_Acc,2024-06-25 13:58:09.521519898,-25.0,-59.0,13.0
1904-01-01 00:18:37.222454899,E4_Acc,2024-06-25 13:58:09.552769899,-24.0,-58.0,13.0
1904-01-01 00:18:37.253704899,E4_Acc,2024-06-25 13:58:09.584019899,-24.0,-59.0,13.0
1904-01-01 00:18:37.284954899,E4_Acc,2024-06-25 13:58:09.615269899,-24.0,-59.0,14.0
1904-01-01 00:18:37.316204899,E4_Acc,2024-06-25 13:58:09.646519899,-24.0,-59.0,14.0
1904-01-01 00:18:37.347454899,E4_Acc,2024-06-25 13:58:09.677769899,-24.0,-59.0,14.0
1904-01-01 00:18:37.378704899,E4_Acc,2024-06-25 13:58:09.709019899,-25.0,-59.0,14.0
1904-01-01 00:18:37.409964913,E4_Acc,2024-06-25 13:58:09.740279913,-25.0,-59.0,14.0
1904-01-01 00:18:37.441214913,E4_Acc,2024-06-25 13:58:09.771529913,-25.0,-58.0,14.0
1904-01-01 00:18:37.472464913,E4_Acc,2024-06-25 13:58:09.802779913,-25.0,-58.0,14.0
1904-01-01 00:18:37.503714913,E4_Acc,2024-06-25 13:58:09.834029913,-25.0,-58.0,14.0
1904-01-01 00:18:37.534964913,E4_Acc,2024-06-25 13:58:09.865279913,-25.0,-58.0,14.0
1904-01-01 00:18:37.566214913,E4_Acc,2024-06-25 13:58:09.896529913,-25.0,-59.0,13.0
1904-01-01 00:18:37.597464913,E4_Acc,2024-06-25 13:58:09.927779913,-25.0,-59.0,13.0
1904-01-01 00:18:37.628724927,E4_Acc,2024-06-25 13:58:09.959039927,-25.0,-58.0,13.0
1904-01-01 00:18:37.659974927,E4_Acc,2024-06-25 13:58:09.990289927,-25.0,-58.0,13.0
1904-01-01 00:18:37.691224927,E4_Acc,2024-06-25 13:58:10.021539927,-25.0,-58.0,13.0
1904-01-01 00:18:37.722474927,E4_Acc,2024-06-25 13:58:10.052789927,-24.0,-58.0,13.0
1904-01-01 00:18:37.753724927,E4_Acc,2024-06-25 13:58:10.084039927,-25.0,-59.0,13.0
1904-01-01 00:18:37.784974927,E4_Acc,2024-06-25 13:58:10.115289927,-24.0,-58.0,13.0
1904-01-01 00:18:37.816224927,E4_Acc,2024-06-25 13:58:10.146539927,-24.0,-59.0,13.0
1904-01-01 00:18:37.847484940,E4_Acc,2024-06-25 13:58:10.177799940,-24.0,-59.0,13.0
1904-01-01 00:18:37.878734940,E4_Acc,2024-06-25 13:58:10.209049940,-24.0,-59.0,13.0
1904-01-01 00:18:37.909984940,E4_Acc,2024-06-25 13:58:10.240299940,-24.0,-58.0,13.0
1904-01-01 00:18:37.941234940,E4_Acc,2024-06-25 13:58:10.271549940,-24.0,-59.0,13.0
1904-01-01 00:18:37.972484940,E4_Acc,2024-06-25 13:58:10.302799940,-24.0,-59.0,13.0
1904-01-01 00:18:38.003734940,E4_Acc,2024-06-25 13:58:10.334049940,-24.0,-59.0,13.0
1904-01-01 00:18:38.034984940,E4_Acc,2024-06-25 13:58:10.365299940,-25.0,-59.0,14.0
1904-01-01 00:18:38.066244954,E4_Acc,2024-06-25 13:58:10.396559954,-24.0,-59.0,13.0
1904-01-01 00:18:38.097494954,E4_Acc,2024-06-25 13:58:10.427809954,-25.0,-58.0,13.0
1904-01-01 00:18:38.128744954,E4_Acc,2024-06-25 13:58:10.459059954,-25.0,-59.0,13.0
1904-01-01 00:18:38.159994954,E4_Acc,2024-06-25 13:58:10.490309954,-25.0,-59.0,13.0
1904-01-01 00:18:38.191244954,E4_Acc,2024-06-25 13:58:10.521559954,-25.0,-59.0,13.0
1904-01-01 00:18:38.222494954,E4_Acc,2024-06-25 13:58:10.552809954,-25.0,-59.0,13.0
1904-01-01 00:18:38.253744954,E4_Acc,2024-06-25 13:58:10.584059954,-24.0,-58.0,13.0
1904-01-01 00:18:38.285004967,E4_Acc,2024-06-25 13:58:10.615319967,-24.0,-58.0,13.0
1904-01-01 00:18:38.316254967,E4_Acc,2024-06-25 13:58:10.646569967,-24.0,-59.0,13.0
1904-01-01 00:18:38.347504967,E4_Acc,2024-06-25 13:58:10.677819967,-24.0,-59.0,13.0
1904-01-01 00:18:38.378754967,E4_Acc,2024-06-25 13:58:10.709069967,-24.0,-60.0,14.0
1904-01-01 00:18:38.410004967,E4_Acc,2024-06-25 13:58:10.740319967,-24.0,-59.0,14.0
1904-01-01 00:18:38.441254967,E4_Acc,2024-06-25 13:58:10.771569967,-24.0,-58.0,14.0
1904-01-01 00:18:38.472504967,E4_Acc,2024-06-25 13:58:10.802819967,-24.0,-58.0,14.0
1904-01-01 00:18:38.503764981,E4_Acc,2024-06-25 13:58:10.834079981,-24.0,-59.0,14.0
1904-01-01 00:18:38.535014981,E4_Acc,2024-06-25 13:58:10.865329981,-24.0,-59.0,14.0
1904-01-01 00:18:38.566264981,E4_Acc,2024-06-25 13:58:10.896579981,-24.0,-59.0,13.0
1904-01-01 00:18:38.597514981,E4_Acc,2024-06-25 13:58:10.927829981,-24.0,-59.0,13.0
1904-01-01 00:18:38.628764981,E4_Acc,2024-06-25 13:58:10.959079981,-24.0,-59.0,13.0
1904-01-01 00:18:38.660014981,E4_Acc,2024-06-25 13:58:10.990329981,-24.0,-58.0,13.0
1904-01-01 00:18:38.691264981,E4_Acc,2024-06-25 13:58:11.021579981,-24.0,-58.0,13.0
1904-01-01 00:18:38.722524994,E4_Acc,2024-06-25 13:58:11.052839994,-24.0,-58.0,13.0
1904-01-01 00:18:38.753774994,E4_Acc,2024-06-25 13:58:11.084089994,-24.0,-59.0,14.0
1904-01-01 00:18:38.785024994,E4_Acc,2024-06-25 13:58:11.115339994,-25.0,-59.0,14.0
1904-01-01 00:18:38.816274994,E4_Acc,2024-06-25 13:58:11.146589994,-25.0,-58.0,14.0
1904-01-01 00:18:38.847524994,E4_Acc,2024-06-25 13:58:11.177839994,-25.0,-58.0,14.0
1904-01-01 00:18:38.878774994,E4_Acc,2024-06-25 13:58:11.209089994,-25.0,-58.0,14.0
1904-01-01 00:18:38.910024994,E4_Acc,2024-06-25 13:58:11.240339994,-25.0,-58.0,14.0
1904-01-01 00:18:38.941285008,E4_Acc,2024-06-25 13:58:11.271600008,-25.0,-58.0,14.0
1904-01-01 00:18:38.972535008,E4_Acc,2024-06-25 13:58:11.302850008,-25.0,-59.0,14.0
1904-01-01 00:18:39.003785008,E4_Acc,2024-06-25 13:58:11.334100008,-25.0,-59.0,14.0
1904-01-01 00:18:39.035035008,E4_Acc,2024-06-25 13:58:11.365350008,-25.0,-59.0,14.0
1904-01-01 00:18:39.066285008,E4_Acc,2024-06-25 13:58:11.396600008,-24.0,-58.0,14.0
1904-01-01 00:18:39.097535008,E4_Acc,2024-06-25 13:58:11.427850008,-24.0,-58.0,14.0
1904-01-01 00:18:39.128795022,E4_Acc,2024-06-25 13:58:11.459110022,-24.0,-58.0,14.0
1904-01-01 00:18:39.160045022,E4_Acc,2024-06-25 13:58:11.490360022,-24.0,-59.0,14.0
1904-01-01 00:18:39.191295021,E4_Acc,2024-06-25 13:58:11.521610021,-24.0,-58.0,14.0
1904-01-01 00:18:39.222545022,E4_Acc,2024-06-25 13:58:11.552860022,-24.0,-58.0,14.0
1904-01-01 00:18:39.253795022,E4_Acc,2024-06-25 13:58:11.584110022,-24.0,-59.0,14.0
1904-01-01 00:18:39.285045022,E4_Acc,2024-06-25 13:58:11.615360022,-24.0,-58.0,14.0
1904-01-01 00:18:39.316295022,E4_Acc,2024-06-25 13:58:11.646610022,-25.0,-59.0,14.0
1904-01-01 00:18:39.347555035,E4_Acc,2024-06-25 13:58:11.677870035,-25.0,-59.0,14.0
1904-01-01 00:18:39.378805035,E4_Acc,2024-06-25 13:58:11.709120035,-25.0,-58.0,14.0
1904-01-01 00:18:39.410055035,E4_Acc,2024-06-25 13:58:11.740370035,-25.0,-58.0,14.0
1904-01-01 00:18:39.441305035,E4_Acc,2024-06-25 13:58:11.771620035,-25.0,-58.0,14.0
1904-01-01 00:18:39.472555035,E4_Acc,2024-06-25 13:58:11.802870035,-25.0,-59.0,14.0
1904-01-01 00:18:39.503805035,E4_Acc,2024-06-25 13:58:11.834120035,-25.0,-59.0,14.0
1904-01-01 00:18:39.535055035,E4_Acc,2024-06-25 13:58:11.865370035,-25.0,-59.0,14.0
1904-01-01 00:18:39.566315049,E4_Acc,2024-06-25 13:58:11.896630049,-24.0,-58.0,14.0
1904-01-01 00:18:39.597565049,E4_Acc,2024-06-25 13:58:11.927880049,-24.0,-59.0,14.0
1904-01-01 00:18:39.628815049,E4_Acc,2024-06-25 13:58:11.959130049,-24.0,-58.0,14.0
1904-01-01 00:18:39.660065049,E4_Acc,2024-06-25 13:58:11.990380049,-25.0,-59.0,14.0
1904-01-01 00:18:39.691315049,E4_Acc,2024-06-25 13:58:12.021630049,-24.0,-59.0,14.0
1904-01-01 00:18:39.722565049,E4_Acc,2024-06-25 13:58:12.052880049,-24.0,-59.0,14.0
1904-01-01 00:18:39.753815049,E4_Acc,2024-06-25 13:58:12.084130049,-24.0,-59.0,14.0
1904-01-01 00:18:39.785075062,E4_Acc,2024-06-25 13:58:12.115390062,-24.0,-59.0,14.0
1904-01-01 00:18:39.816325062,E4_Acc,2024-06-25 13:58:12.146640062,-24.0,-59.0,14.0
1904-01-01 00:18:39.847575062,E4_Acc,2024-06-25 13:58:12.177890062,-25.0,-59.0,13.0
1904-01-01 00:18:39.878825062,E4_Acc,2024-06-25 13:58:12.209140062,-25.0,-59.0,13.0
1904-01-01 00:18:39.910075062,E4_Acc,2024-06-25 13:58:12.240390062,-25.0,-58.0,13.0
1904-01-01 00:18:39.941325062,E4_Acc,2024-06-25 13:58:12.271640062,-25.0,-59.0,13.0
1904-01-01 00:18:39.972575062,E4_Acc,2024-06-25 13:58:12.302890062,-25.0,-59.0,14.0
1904-01-01 00:18:40.003835076,E4_Acc,2024-06-25 13:58:12.334150076,-25.0,-58.0,13.0
1904-01-01 00:18:40.035085076,E4_Acc,2024-06-25 13:58:12.365400076,-25.0,-58.0,13.0
1904-01-01 00:18:40.066335076,E4_Acc,2024-06-25 13:58:12.396650076,-24.0,-58.0,13.0
1904-01-01 00:18:40.097585076,E4_Acc,2024-06-25 13:58:12.427900076,-25.0,-59.0,14.0
1904-01-01 00:18:40.128835076,E4_Acc,2024-06-25 13:58:12.459150076,-25.0,-59.0,14.0
1904-01-01 00:18:40.160085076,E4_Acc,2024-06-25 13:58:12.490400076,-25.0,-58.0,14.0
1904-01-01 00:18:40.191335076,E4_Acc,2024-06-25 13:58:12.521650076,-25.0,-58.0,14.0
1904-01-01 00:18:40.222595089,E4_Acc,2024-06-25 13:58:12.552910089,-25.0,-58.0,14.0
1904-01-01 00:18:40.253845089,E4_Acc,2024-06-25 13:58:12.584160089,-25.0,-58.0,14.0
1904-01-01 00:18:40.285095089,E4_Acc,2024-06-25 13:58:12.615410089,-25.0,-59.0,14.0
1904-01-01 00:18:40.316345089,E4_Acc,2024-06-25 13:58:12.646660089,-25.0,-58.0,13.0
1904-01-01 00:18:40.347595089,E4_Acc,2024-06-25 13:58:12.677910089,-25.0,-58.0,14.0
1904-01-01 00:18:40.378845089,E4_Acc,2024-06-25 13:58:12.709160089,-25.0,-58.0,13.0
1904-01-01 00:18:40.410095089,E4_Acc,2024-06-25 13:58:12.740410089,-25.0,-58.0,14.0
1904-01-01 00:18:40.441355103,E4_Acc,2024-06-25 13:58:12.771670103,-25.0,-58.0,13.0
1904-01-01 00:18:40.472605103,E4_Acc,2024-06-25 13:58:12.802920103,-25.0,-58.0,13.0
1904-01-01 00:18:40.503855103,E4_Acc,2024-06-25 13:58:12.834170103,-25.0,-59.0,13.0
1904-01-01 00:18:40.535105103,E4_Acc,2024-06-25 13:58:12.865420103,-25.0,-58.0,13.0
1904-01-01 00:18:40.566355103,E4_Acc,2024-06-25 13:58:12.896670103,-25.0,-58.0,13.0
1904-01-01 00:18:40.597605103,E4_Acc,2024-06-25 13:58:12.927920103,-25.0,-58.0,13.0
1904-01-01 00:18:40.628855103,E4_Acc,2024-06-25 13:58:12.959170103,-25.0,-59.0,13.0
1904-01-01 00:18:40.660115117,E4_Acc,2024-06-25 13:58:12.990430117,-25.0,-59.0,14.0
1904-01-01 00:18:40.691365117,E4_Acc,2024-06-25 13:58:13.021680117,-25.0,-58.0,14.0
1904-01-01 00:18:40.722615117,E4_Acc,2024-06-25 13:58:13.052930117,-24.0,-58.0,13.0
1904-01-01 00:18:40.753865117,E4_Acc,2024-06-25 13:58:13.084180117,-25.0,-59.0,13.0
1904-01-01 00:18:40.785115117,E4_Acc,2024-06-25 13:58:13.115430117,-24.0,-59.0,14.0
1904-01-01 00:18:40.816365117,E4_Acc,2024-06-25 13:58:13.146680117,-24.0,-59.0,14.0
1904-01-01 00:18:40.847615117,E4_Acc,2024-06-25 13:58:13.177930117,-24.0,-59.0,13.0
1904-01-01 00:18:40.878874892,E4_Acc,2024-06-25 13:58:13.209189892,-24.0,-59.0,13.0
1904-01-01 00:18:40.910124892,E4_Acc,2024-06-25 13:58:13.240439892,-24.0,-59.0,13.0
1904-01-01 00:18:40.941374892,E4_Acc,2024-06-25 13:58:13.271689892,-24.0,-59.0,13.0
1904-01-01 00:18:40.972624892,E4_Acc,2024-06-25 13:58:13.302939892,-24.0,-59.0,13.0
1904-01-01 00:18:41.003874892,E4_Acc,2024-06-25 13:58:13.334189892,-24.0,-59.0,13.0
1904-01-01 00:18:41.035124892,E4_Acc,2024-06-25 13:58:13.365439892,-24.0,-58.0,13.0
1904-01-01 00:18:41.066374892,E4_Acc,2024-06-25 13:58:13.396689892,-24.0,-59.0,13.0
1904-01-01 00:18:41.097634905,E4_Acc,2024-06-25 13:58:13.427949905,-24.0,-59.0,13.0
1904-01-01 00:18:41.128884905,E4_Acc,2024-06-25 13:58:13.459199905,-24.0,-59.0,13.0
1904-01-01 00:18:41.160134905,E4_Acc,2024-06-25 13:58:13.490449905,-24.0,-59.0,13.0
1904-01-01 00:18:41.191384904,E4_Acc,2024-06-25 13:58:13.521699904,-24.0,-59.0,14.0
1904-01-01 00:18:41.222634905,E4_Acc,2024-06-25 13:58:13.552949905,-24.0,-59.0,14.0
1904-01-01 00:18:41.253884905,E4_Acc,2024-06-25 13:58:13.584199905,-24.0,-58.0,14.0
1904-01-01 00:18:41.285134905,E4_Acc,2024-06-25 13:58:13.615449905,-24.0,-58.0,14.0
1904-01-01 00:18:41.316394919,E4_Acc,2024-06-25 13:58:13.646709919,-25.0,-59.0,14.0
1904-01-01 00:18:41.347644919,E4_Acc,2024-06-25 13:58:13.677959919,-25.0,-59.0,14.0
1904-01-01 00:18:41.378894919,E4_Acc,2024-06-25 13:58:13.709209919,-25.0,-59.0,14.0
1904-01-01 00:18:41.410144919,E4_Acc,2024-06-25 13:58:13.740459919,-24.0,-59.0,14.0
1904-01-01 00:18:41.441394919,E4_Acc,2024-06-25 13:58:13.771709919,-24.0,-59.0,13.0
1904-01-01 00:18:41.472644919,E4_Acc,2024-06-25 13:58:13.802959919,-24.0,-59.0,13.0
1904-01-01 00:18:41.503894919,E4_Acc,2024-06-25 13:58:13.834209919,-24.0,-59.0,13.0
1904-01-01 00:18:41.535154933,E4_Acc,2024-06-25 13:58:13.865469933,-24.0,-58.0,13.0
1904-01-01 00:18:41.566404933,E4_Acc,2024-06-25 13:58:13.896719933,-24.0,-59.0,12.0
1904-01-01 00:18:41.597654933,E4_Acc,2024-06-25 13:58:13.927969933,-24.0,-59.0,13.0
1904-01-01 00:18:41.628904933,E4_Acc,2024-06-25 13:58:13.959219933,-23.0,-59.0,13.0
1904-01-01 00:18:41.660154933,E4_Acc,2024-06-25 13:58:13.990469933,-23.0,-59.0,13.0
1904-01-01 00:18:41.691404933,E4_Acc,2024-06-25 13:58:14.021719933,-23.0,-58.0,13.0
1904-01-01 00:18:41.722654933,E4_Acc,2024-06-25 13:58:14.052969933,-23.0,-59.0,13.0
1904-01-01 00:18:41.753914946,E4_Acc,2024-06-25 13:58:14.084229946,-24.0,-59.0,14.0
1904-01-01 00:18:41.785164946,E4_Acc,2024-06-25 13:58:14.115479946,-24.0,-59.0,14.0
1904-01-01 00:18:41.816414946,E4_Acc,2024-06-25 13:58:14.146729946,-24.0,-59.0,14.0
1904-01-01 00:18:41.847664946,E4_Acc,2024-06-25 13:58:14.177979946,-24.0,-59.0,14.0
1904-01-01 00:18:41.878914946,E4_Acc,2024-06-25 13:58:14.209229946,-24.0,-59.0,14.0
1904-01-01 00:18:41.910164946,E4_Acc,2024-06-25 13:58:14.240479946,-24.0,-59.0,14.0
1904-01-01 00:18:41.941424960,E4_Acc,2024-06-25 13:58:14.271739960,-24.0,-59.0,14.0
1904-01-01 00:18:41.972674960,E4_Acc,2024-06-25 13:58:14.302989960,-24.0,-59.0,14.0
1904-01-01 00:18:42.003924960,E4_Acc,2024-06-25 13:58:14.334239960,-25.0,-59.0,14.0
1904-01-01 00:18:42.035174960,E4_Acc,2024-06-25 13:58:14.365489960,-24.0,-59.0,13.0
1904-01-01 00:18:42.066424960,E4_Acc,2024-06-25 13:58:14.396739960,-25.0,-59.0,13.0
1904-01-01 00:18:42.097674960,E4_Acc,2024-06-25 13:58:14.427989960,-24.0,-59.0,13.0
1904-01-01 00:18:42.128924960,E4_Acc,2024-06-25 13:58:14.459239960,-24.0,-59.0,13.0
1904-01-01 00:18:42.160184973,E4_Acc,2024-06-25 13:58:14.490499973,-24.0,-59.0,13.0
1904-01-01 00:18:42.191434973,E4_Acc,2024-06-25 13:58:14.521749973,-24.0,-59.0,13.0
1904-01-01 00:18:42.222684973,E4_Acc,2024-06-25 13:58:14.552999973,-24.0,-58.0,13.0
1904-01-01 00:18:42.253934973,E4_Acc,2024-06-25 13:58:14.584249973,-24.0,-59.0,13.0
1904-01-01 00:18:42.285184973,E4_Acc,2024-06-25 13:58:14.615499973,-24.0,-59.0,13.0
1904-01-01 00:18:42.316434973,E4_Acc,2024-06-25 13:58:14.646749973,-24.0,-59.0,14.0
1904-01-01 00:18:42.347684973,E4_Acc,2024-06-25 13:58:14.677999973,-24.0,-59.0,13.0
1904-01-01 00:18:42.378944987,E4_Acc,2024-06-25 13:58:14.709259987,-24.0,-58.0,14.0
1904-01-01 00:18:42.410194987,E4_Acc,2024-06-25 13:58:14.740509987,-24.0,-59.0,13.0
1904-01-01 00:18:42.441444987,E4_Acc,2024-06-25 13:58:14.771759987,-24.0,-59.0,14.0
1904-01-01 00:18:42.472694987,E4_Acc,2024-06-25 13:58:14.803009987,-24.0,-59.0,14.0
1904-01-01 00:18:42.503944987,E4_Acc,2024-06-25 13:58:14.834259987,-24.0,-58.0,14.0
1904-01-01 00:18:42.535194987,E4_Acc,2024-06-25 13:58:14.865509987,-24.0,-58.0,14.0
1904-01-01 00:18:42.566444987,E4_Acc,2024-06-25 13:58:14.896759987,-24.0,-59.0,13.0
1904-01-01 00:18:42.597705000,E4_Acc,2024-06-25 13:58:14.928020000,-25.0,-59.0,13.0
1904-01-01 00:18:42.628955000,E4_Acc,2024-06-25 13:58:14.959270000,-25.0,-58.0,13.0
1904-01-01 00:18:42.660205000,E4_Acc,2024-06-25 13:58:14.990520000,-25.0,-58.0,13.0
1904-01-01 00:18:42.691455000,E4_Acc,2024-06-25 13:58:15.021770000,-25.0,-58.0,13.0
1904-01-01 00:18:42.722705000,E4_Acc,2024-06-25 13:58:15.053020000,-25.0,-58.0,13.0
1904-01-01 00:18:42.753955000,E4_Acc,2024-06-25 13:58:15.084270000,-25.0,-59.0,13.0
1904-01-01 00:18:42.785205000,E4_Acc,2024-06-25 13:58:15.115520000,-25.0,-59.0,13.0
1904-01-01 00:18:42.816465014,E4_Acc,2024-06-25 13:58:15.146780014,-24.0,-59.0,13.0
1904-01-01 00:18:42.847715014,E4_Acc,2024-06-25 13:58:15.178030014,-24.0,-59.0,13.0
1904-01-01 00:18:42.878965014,E4_Acc,2024-06-25 13:58:15.209280014,-24.0,-59.0,13.0
1904-01-01 00:18:42.910215014,E4_Acc,2024-06-25 13:58:15.240530014,-24.0,-59.0,13.0
1904-01-01 00:18:42.941465014,E4_Acc,2024-06-25 13:58:15.271780014,-24.0,-59.0,14.0
1904-01-01 00:18:42.972715014,E4_Acc,2024-06-25 13:58:15.303030014,-24.0,-59.0,14.0
1904-01-01 00:18:43.003965014,E4_Acc,2024-06-25 13:58:15.334280014,-24.0,-59.0,14.0
1904-01-01 00:18:43.035225028,E4_Acc,2024-06-25 13:58:15.365540028,-24.0,-59.0,14.0
1904-01-01 00:18:43.066475028,E4_Acc,2024-06-25 13:58:15.396790028,-24.0,-58.0,14.0
1904-01-01 00:18:43.097725028,E4_Acc,2024-06-25 13:58:15.428040028,-24.0,-59.0,13.0
1904-01-01 00:18:43.128975028,E4_Acc,2024-06-25 13:58:15.459290028,-24.0,-59.0,14.0
1904-01-01 00:18:43.160225028,E4_Acc,2024-06-25 13:58:15.490540028,-24.0,-59.0,13.0
1904-01-01 00:18:43.191475027,E4_Acc,2024-06-25 13:58:15.521790027,-24.0,-59.0,13.0
1904-01-01 00:18:43.222725028,E4_Acc,2024-06-25 13:58:15.553040028,-25.0,-59.0,13.0
1904-01-01 00:18:43.253985041,E4_Acc,2024-06-25 13:58:15.584300041,-24.0,-59.0,13.0
1904-01-01 00:18:43.285235041,E4_Acc,2024-06-25 13:58:15.615550041,-24.0,-58.0,13.0
1904-01-01 00:18:43.316485041,E4_Acc,2024-06-25 13:58:15.646800041,-24.0,-59.0,13.0
1904-01-01 00:18:43.347735041,E4_Acc,2024-06-25 13:58:15.678050041,-24.0,-59.0,13.0
1904-01-01 00:18:43.378985041,E4_Acc,2024-06-25 13:58:15.709300041,-24.0,-59.0,13.0
1904-01-01 00:18:43.410235041,E4_Acc,2024-06-25 13:58:15.740550041,-24.0,-58.0,14.0
1904-01-01 00:18:43.441485041,E4_Acc,2024-06-25 13:58:15.771800041,-24.0,-58.0,13.0
1904-01-01 00:18:43.472745055,E4_Acc,2024-06-25 13:58:15.803060055,-24.0,-58.0,13.0
1904-01-01 00:18:43.503995055,E4_Acc,2024-06-25 13:58:15.834310055,-25.0,-59.0,14.0
1904-01-01 00:18:43.535245055,E4_Acc,2024-06-25 13:58:15.865560055,-24.0,-59.0,13.0
1904-01-01 00:18:43.566495055,E4_Acc,2024-06-25 13:58:15.896810055,-24.0,-59.0,13.0
1904-01-01 00:18:43.597745055,E4_Acc,2024-06-25 13:58:15.928060055,-24.0,-58.0,13.0
1904-01-01 00:18:43.628995055,E4_Acc,2024-06-25 13:58:15.959310055,-24.0,-58.0,13.0
1904-01-01 00:18:43.660245055,E4_Acc,2024-06-25 13:58:15.990560055,-24.0,-59.0,13.0
1904-01-01 00:18:43.691505068,E4_Acc,2024-06-25 13:58:16.021820068,-24.0,-59.0,13.0
1904-01-01 00:18:43.722755068,E4_Acc,2024-06-25 13:58:16.053070068,-24.0,-59.0,13.0
1904-01-01 00:18:43.754005068,E4_Acc,2024-06-25 13:58:16.084320068,-24.0,-58.0,13.0
1904-01-01 00:18:43.785255068,E4_Acc,2024-06-25 13:58:16.115570068,-24.0,-59.0,13.0
1904-01-01 00:18:43.816505068,E4_Acc,2024-06-25 13:58:16.146820068,-24.0,-59.0,13.0
1904-01-01 00:18:43.847755068,E4_Acc,2024-06-25 13:58:16.178070068,-24.0,-59.0,14.0
1904-01-01 00:18:43.879005068,E4_Acc,2024-06-25 13:58:16.209320068,-24.0,-59.0,14.0
1904-01-01 00:18:43.910265082,E4_Acc,2024-06-25 13:58:16.240580082,-24.0,-59.0,14.0
1904-01-01 00:18:43.941515082,E4_Acc,2024-06-25 13:58:16.271830082,-24.0,-58.0,14.0
1904-01-01 00:18:43.972765082,E4_Acc,2024-06-25 13:58:16.303080082,-25.0,-58.0,14.0
1904-01-01 00:18:44.004015082,E4_Acc,2024-06-25 13:58:16.334330082,-24.0,-59.0,13.0
1904-01-01 00:18:44.035265082,E4_Acc,2024-06-25 13:58:16.365580082,-25.0,-59.0,14.0
1904-01-01 00:18:44.066515082,E4_Acc,2024-06-25 13:58:16.396830082,-25.0,-59.0,14.0
1904-01-01 00:18:44.097775096,E4_Acc,2024-06-25 13:58:16.428090096,-25.0,-59.0,13.0
1904-01-01 00:18:44.129025096,E4_Acc,2024-06-25 13:58:16.459340096,-25.0,-58.0,13.0
1904-01-01 00:18:44.160275096,E4_Acc,2024-06-25 13:58:16.490590096,-25.0,-58.0,13.0
1904-01-01 00:18:44.191525096,E4_Acc,2024-06-25 13:58:16.521840096,-24.0,-59.0,13.0
1904-01-01 00:18:44.222775096,E4_Acc,2024-06-25 13:58:16.553090096,-25.0,-59.0,14.0
1904-01-01 00:18:44.254025096,E4_Acc,2024-06-25 13:58:16.584340096,-24.0,-59.0,13.0
1904-01-01 00:18:44.285275096,E4_Acc,2024-06-25 13:58:16.615590096,-24.0,-58.0,13.0
1904-01-01 00:18:44.316535109,E4_Acc,2024-06-25 13:58:16.646850109,-25.0,-58.0,13.0
1904-01-01 00:18:44.347785109,E4_Acc,2024-06-25 13:58:16.678100109,-24.0,-58.0,14.0
1904-01-01 00:18:44.379035109,E4_Acc,2024-06-25 13:58:16.709350109,-25.0,-59.0,14.0
1904-01-01 00:18:44.410285109,E4_Acc,2024-06-25 13:58:16.740600109,-25.0,-59.0,14.0
1904-01-01 00:18:44.441535109,E4_Acc,2024-06-25 13:58:16.771850109,-25.0,-59.0,13.0
1904-01-01 00:18:44.472785109,E4_Acc,2024-06-25 13:58:16.803100109,-25.0,-59.0,13.0
1904-01-01 00:18:44.504035109,E4_Acc,2024-06-25 13:58:16.834350109,-24.0,-58.0,13.0
1904-01-01 00:18:44.535294884,E4_Acc,2024-06-25 13:58:16.865609884,-25.0,-59.0,13.0
1904-01-01 00:18:44.566544884,E4_Acc,2024-06-25 13:58:16.896859884,-25.0,-58.0,13.0
1904-01-01 00:18:44.597794884,E4_Acc,2024-06-25 13:58:16.928109884,-24.0,-59.0,13.0
1904-01-01 00:18:44.629044884,E4_Acc,2024-06-25 13:58:16.959359884,-24.0,-59.0,13.0
1904-01-01 00:18:44.660294884,E4_Acc,2024-06-25 13:58:16.990609884,-24.0,-59.0,13.0
1904-01-01 00:18:44.691544884,E4_Acc,2024-06-25 13:58:17.021859884,-24.0,-58.0,14.0
1904-01-01 00:18:44.722794884,E4_Acc,2024-06-25 13:58:17.053109884,-24.0,-59.0,13.0
1904-01-01 00:18:44.754054898,E4_Acc,2024-06-25 13:58:17.084369898,-24.0,-59.0,14.0
1904-01-01 00:18:44.785304898,E4_Acc,2024-06-25 13:58:17.115619898,-24.0,-59.0,14.0
1904-01-01 00:18:44.816554898,E4_Acc,2024-06-25 13:58:17.146869898,-24.0,-59.0,14.0
1904-01-01 00:18:44.847804898,E4_Acc,2024-06-25 13:58:17.178119898,-25.0,-58.0,14.0
1904-01-01 00:18:44.879054898,E4_Acc,2024-06-25 13:58:17.209369898,-25.0,-59.0,14.0
1904-01-01 00:18:44.910304898,E4_Acc,2024-06-25 13:58:17.240619898,-25.0,-59.0,13.0
1904-01-01 00:18:44.941554898,E4_Acc,2024-06-25 13:58:17.271869898,-25.0,-59.0,14.0
1904-01-01 00:18:44.972814911,E4_Acc,2024-06-25 13:58:17.303129911,-25.0,-59.0,13.0
1904-01-01 00:18:45.004064911,E4_Acc,2024-06-25 13:58:17.334379911,-25.0,-58.0,13.0
1904-01-01 00:18:45.035314911,E4_Acc,2024-06-25 13:58:17.365629911,-25.0,-58.0,14.0
1904-01-01 00:18:45.066564911,E4_Acc,2024-06-25 13:58:17.396879911,-25.0,-58.0,13.0
1904-01-01 00:18:45.097814911,E4_Acc,2024-06-25 13:58:17.428129911,-25.0,-59.0,13.0
1904-01-01 00:18:45.129064911,E4_Acc,2024-06-25 13:58:17.459379911,-25.0,-59.0,14.0
1904-01-01 00:18:45.160314911,E4_Acc,2024-06-25 13:58:17.490629911,-25.0,-58.0,14.0
1904-01-01 00:18:45.191574925,E4_Acc,2024-06-25 13:58:17.521889925,-25.0,-59.0,13.0
1904-01-01 00:18:45.222824925,E4_Acc,2024-06-25 13:58:17.553139925,-24.0,-58.0,14.0
1904-01-01 00:18:45.254074925,E4_Acc,2024-06-25 13:58:17.584389925,-25.0,-59.0,14.0
1904-01-01 00:18:45.285324925,E4_Acc,2024-06-25 13:58:17.615639925,-25.0,-59.0,13.0
1904-01-01 00:18:45.316574925,E4_Acc,2024-06-25 13:58:17.646889925,-25.0,-58.0,13.0
1904-01-01 00:18:45.347824925,E4_Acc,2024-06-25 13:58:17.678139925,-25.0,-58.0,13.0
1904-01-01 00:18:45.379074925,E4_Acc,2024-06-25 13:58:17.709389925,-25.0,-58.0,13.0
1904-01-01 00:18:45.410334939,E4_Acc,2024-06-25 13:58:17.740649939,-25.0,-59.0,13.0
1904-01-01 00:18:45.441584939,E4_Acc,2024-06-25 13:58:17.771899939,-25.0,-59.0,13.0
1904-01-01 00:18:45.472834939,E4_Acc,2024-06-25 13:58:17.803149939,-25.0,-59.0,14.0
1904-01-01 00:18:45.504084939,E4_Acc,2024-06-25 13:58:17.834399939,-25.0,-58.0,13.0
1904-01-01 00:18:45.535334939,E4_Acc,2024-06-25 13:58:17.865649939,-25.0,-58.0,14.0
1904-01-01 00:18:45.566584939,E4_Acc,2024-06-25 13:58:17.896899939,-25.0,-59.0,14.0
1904-01-01 00:18:45.597834939,E4_Acc,2024-06-25 13:58:17.928149939,-25.0,-59.0,14.0
1904-01-01 00:18:45.629094952,E4_Acc,2024-06-25 13:58:17.959409952,-24.0,-59.0,14.0
1904-01-01 00:18:45.660344952,E4_Acc,2024-06-25 13:58:17.990659952,-25.0,-58.0,14.0
1904-01-01 00:18:45.691594952,E4_Acc,2024-06-25 13:58:18.021909952,-25.0,-58.0,14.0
1904-01-01 00:18:45.722844952,E4_Acc,2024-06-25 13:58:18.053159952,-25.0,-58.0,14.0
1904-01-01 00:18:45.754094952,E4_Acc,2024-06-25 13:58:18.084409952,-25.0,-59.0,14.0
1904-01-01 00:18:45.785344952,E4_Acc,2024-06-25 13:58:18.115659952,-25.0,-58.0,14.0
1904-01-01 00:18:45.816594952,E4_Acc,2024-06-25 13:58:18.146909952,-25.0,-58.0,14.0
1904-01-01 00:18:45.847854966,E4_Acc,2024-06-25 13:58:18.178169966,-25.0,-58.0,13.0
1904-01-01 00:18:45.879104966,E4_Acc,2024-06-25 13:58:18.209419966,-25.0,-58.0,14.0
1904-01-01 00:18:45.910354966,E4_Acc,2024-06-25 13:58:18.240669966,-25.0,-59.0,13.0
1904-01-01 00:18:45.941604966,E4_Acc,2024-06-25 13:58:18.271919966,-25.0,-58.0,14.0
1904-01-01 00:18:45.972854966,E4_Acc,2024-06-25 13:58:18.303169966,-25.0,-58.0,14.0
1904-01-01 00:18:46.004104966,E4_Acc,2024-06-25 13:58:18.334419966,-25.0,-58.0,14.0
1904-01-01 00:18:46.035354966,E4_Acc,2024-06-25 13:58:18.365669966,-25.0,-58.0,14.0
1904-01-01 00:18:46.066614979,E4_Acc,2024-06-25 13:58:18.396929979,-25.0,-58.0,14.0
1904-01-01 00:18:46.097864979,E4_Acc,2024-06-25 13:58:18.428179979,-25.0,-58.0,14.0
1904-01-01 00:18:46.129114979,E4_Acc,2024-06-25 13:58:18.459429979,-25.0,-58.0,14.0
1904-01-01 00:18:46.160364979,E4_Acc,2024-06-25 13:58:18.490679979,-25.0,-59.0,14.0
1904-01-01 00:18:46.191614979,E4_Acc,2024-06-25 13:58:18.521929979,-25.0,-58.0,14.0
1904-01-01 00:18:46.222864979,E4_Acc,2024-06-25 13:58:18.553179979,-25.0,-58.0,14.0
1904-01-01 00:18:46.254114979,E4_Acc,2024-06-25 13:58:18.584429979,-25.0,-58.0,14.0
1904-01-01 00:18:46.285374993,E4_Acc,2024-06-25 13:58:18.615689993,-25.0,-58.0,14.0
1904-01-01 00:18:46.316624993,E4_Acc,2024-06-25 13:58:18.646939993,-25.0,-58.0,14.0
1904-01-01 00:18:46.347874993,E4_Acc,2024-06-25 13:58:18.678189993,-25.0,-58.0,14.0
1904-01-01 00:18:46.379124993,E4_Acc,2024-06-25 13:58:18.709439993,-25.0,-58.0,14.0
1904-01-01 00:18:46.410374993,E4_Acc,2024-06-25 13:58:18.740689993,-25.0,-58.0,14.0
1904-01-01 00:18:46.441624993,E4_Acc,2024-06-25 13:58:18.771939993,-25.0,-58.0,14.0
1904-01-01 00:18:46.472885006,E4_Acc,2024-06-25 13:58:18.803200006,-25.0,-58.0,14.0
1904-01-01 00:18:46.504135006,E4_Acc,2024-06-25 13:58:18.834450006,-25.0,-58.0,14.0
1904-01-01 00:18:46.535385006,E4_Acc,2024-06-25 13:58:18.865700006,-25.0,-58.0,14.0
1904-01-01 00:18:46.566635006,E4_Acc,2024-06-25 13:58:18.896950006,-25.0,-58.0,14.0
1904-01-01 00:18:46.597885006,E4_Acc,2024-06-25 13:58:18.928200006,-25.0,-58.0,14.0
1904-01-01 00:18:46.629135006,E4_Acc,2024-06-25 13:58:18.959450006,-25.0,-58.0,14.0
1904-01-01 00:18:46.660385006,E4_Acc,2024-06-25 13:58:18.990700006,-25.0,-58.0,13.0
1904-01-01 00:18:46.691645020,E4_Acc,2024-06-25 13:58:19.021960020,-25.0,-58.0,13.0
1904-01-01 00:18:46.722895020,E4_Acc,2024-06-25 13:58:19.053210020,-25.0,-59.0,14.0
1904-01-01 00:18:46.754145020,E4_Acc,2024-06-25 13:58:19.084460020,-25.0,-58.0,14.0
1904-01-01 00:18:46.785395020,E4_Acc,2024-06-25 13:58:19.115710020,-25.0,-58.0,14.0
1904-01-01 00:18:46.816645020,E4_Acc,2024-06-25 13:58:19.146960020,-25.0,-59.0,14.0
1904-01-01 00:18:46.847895020,E4_Acc,2024-06-25 13:58:19.178210020,-25.0,-59.0,14.0
1904-01-01 00:18:46.879145020,E4_Acc,2024-06-25 13:58:19.209460020,-25.0,-58.0,14.0
1904-01-01 00:18:46.910405034,E4_Acc,2024-06-25 13:58:19.240720034,-25.0,-58.0,14.0
1904-01-01 00:18:46.941655034,E4_Acc,2024-06-25 13:58:19.271970034,-25.0,-58.0,14.0
1904-01-01 00:18:46.972905034,E4_Acc,2024-06-25 13:58:19.303220034,-25.0,-58.0,14.0
1904-01-01 00:18:47.004155034,E4_Acc,2024-06-25 13:58:19.334470034,-25.0,-59.0,14.0
1904-01-01 00:18:47.035405034,E4_Acc,2024-06-25 13:58:19.365720034,-25.0,-59.0,14.0
1904-01-01 00:18:47.066655034,E4_Acc,2024-06-25 13:58:19.396970034,-25.0,-58.0,14.0
1904-01-01 00:18:47.097905034,E4_Acc,2024-06-25 13:58:19.428220034,-25.0,-58.0,14.0
1904-01-01 00:18:47.129165047,E4_Acc,2024-06-25 13:58:19.459480047,-25.0,-58.0,14.0
1904-01-01 00:18:47.160415047,E4_Acc,2024-06-25 13:58:19.490730047,-25.0,-58.0,14.0
1904-01-01 00:18:47.191665047,E4_Acc,2024-06-25 13:58:19.521980047,-25.0,-59.0,13.0
1904-01-01 00:18:47.222915047,E4_Acc,2024-06-25 13:58:19.553230047,-25.0,-59.0,13.0
1904-01-01 00:18:47.254165047,E4_Acc,2024-06-25 13:58:19.584480047,-25.0,-58.0,13.0
1904-01-01 00:18:47.285415047,E4_Acc,2024-06-25 13:58:19.615730047,-25.0,-58.0,13.0
1904-01-01 00:18:47.316665047,E4_Acc,2024-06-25 13:58:19.646980047,-25.0,-58.0,13.0
1904-01-01 00:18:47.347925061,E4_Acc,2024-06-25 13:58:19.678240061,-25.0,-58.0,13.0
1904-01-01 00:18:47.379175061,E4_Acc,2024-06-25 13:58:19.709490061,-25.0,-58.0,13.0
1904-01-01 00:18:47.410425061,E4_Acc,2024-06-25 13:58:19.740740061,-25.0,-58.0,13.0
1904-01-01 00:18:47.441675061,E4_Acc,2024-06-25 13:58:19.771990061,-25.0,-58.0,13.0
1904-01-01 00:18:47.472925061,E4_Acc,2024-06-25 13:58:19.803240061,-25.0,-58.0,13.0
1904-01-01 00:18:47.504175061,E4_Acc,2024-06-25 13:58:19.834490061,-25.0,-58.0,13.0
1904-01-01 00:18:47.535425061,E4_Acc,2024-06-25 13:58:19.865740061,-25.0,-58.0,13.0
1904-01-01 00:18:47.566685074,E4_Acc,2024-06-25 13:58:19.897000074,-25.0,-59.0,13.0
1904-01-01 00:18:47.597935074,E4_Acc,2024-06-25 13:58:19.928250074,-25.0,-58.0,13.0
1904-01-01 00:18:47.629185074,E4_Acc,2024-06-25 13:58:19.959500074,-25.0,-59.0,13.0
1904-01-01 00:18:47.660435074,E4_Acc,2024-06-25 13:58:19.990750074,-25.0,-59.0,13.0
1904-01-01 00:18:47.691685074,E4_Acc,2024-06-25 13:58:20.022000074,-25.0,-58.0,13.0
1904-01-01 00:18:47.722935074,E4_Acc,2024-06-25 13:58:20.053250074,-25.0,-58.0,13.0
1904-01-01 00:18:47.754185074,E4_Acc,2024-06-25 13:58:20.084500074,-25.0,-58.0,13.0
1904-01-01 00:18:47.785445088,E4_Acc,2024-06-25 13:58:20.115760088,-25.0,-59.0,13.0
1904-01-01 00:18:47.816695088,E4_Acc,2024-06-25 13:58:20.147010088,-25.0,-59.0,13.0
1904-01-01 00:18:47.847945088,E4_Acc,2024-06-25 13:58:20.178260088,-25.0,-58.0,13.0
1904-01-01 00:18:47.879195088,E4_Acc,2024-06-25 13:58:20.209510088,-25.0,-58.0,13.0
1904-01-01 00:18:47.910445088,E4_Acc,2024-06-25 13:58:20.240760088,-25.0,-58.0,13.0
1904-01-01 00:18:47.941695088,E4_Acc,2024-06-25 13:58:20.272010088,-25.0,-59.0,13.0
1904-01-01 00:18:47.972945088,E4_Acc,2024-06-25 13:58:20.303260088,-25.0,-59.0,13.0
1904-01-01 00:18:48.004205102,E4_Acc,2024-06-25 13:58:20.334520102,-25.0,-59.0,13.0
1904-01-01 00:18:48.035455102,E4_Acc,2024-06-25 13:58:20.365770102,-25.0,-59.0,13.0
1904-01-01 00:18:48.066705102,E4_Acc,2024-06-25 13:58:20.397020102,-24.0,-58.0,13.0
1904-01-01 00:18:48.097955102,E4_Acc,2024-06-25 13:58:20.428270102,-25.0,-59.0,13.0
1904-01-01 00:18:48.129205102,E4_Acc,2024-06-25 13:58:20.459520102,-25.0,-59.0,13.0
1904-01-01 00:18:48.160455102,E4_Acc,2024-06-25 13:58:20.490770102,-25.0,-59.0,13.0
1904-01-01 00:18:48.191705102,E4_Acc,2024-06-25 13:58:20.522020102,-25.0,-59.0,13.0
1904-01-01 00:18:48.222965115,E4_Acc,2024-06-25 13:58:20.553280115,-25.0,-59.0,13.0
1904-01-01 00:18:48.254215115,E4_Acc,2024-06-25 13:58:20.584530115,-25.0,-59.0,13.0
1904-01-01 00:18:48.285465115,E4_Acc,2024-06-25 13:58:20.615780115,-25.0,-58.0,13.0
1904-01-01 00:18:48.316715115,E4_Acc,2024-06-25 13:58:20.647030115,-25.0,-59.0,13.0
1904-01-01 00:18:48.347965115,E4_Acc,2024-06-25 13:58:20.678280115,-25.0,-59.0,13.0
1904-01-01 00:18:48.379215115,E4_Acc,2024-06-25 13:58:20.709530115,-25.0,-58.0,13.0
1904-01-01 00:18:48.410465115,E4_Acc,2024-06-25 13:58:20.740780115,-25.0,-59.0,13.0
1904-01-01 00:18:48.441724890,E4_Acc,2024-06-25 13:58:20.772039890,-25.0,-59.0,13.0
1904-01-01 00:18:48.472974890,E4_Acc,2024-06-25 13:58:20.803289890,-25.0,-58.0,13.0
1904-01-01 00:18:48.504224890,E4_Acc,2024-06-25 13:58:20.834539890,-25.0,-58.0,13.0
1904-01-01 00:18:48.535474890,E4_Acc,2024-06-25 13:58:20.865789890,-25.0,-58.0,13.0
1904-01-01 00:18:48.566724890,E4_Acc,2024-06-25 13:58:20.897039890,-25.0,-59.0,13.0
1904-01-01 00:18:48.597974890,E4_Acc,2024-06-25 13:58:20.928289890,-25.0,-59.0,13.0
1904-01-01 00:18:48.629224890,E4_Acc,2024-06-25 13:58:20.959539890,-25.0,-58.0,13.0
1904-01-01 00:18:48.660484904,E4_Acc,2024-06-25 13:58:20.990799904,-25.0,-59.0,13.0
1904-01-01 00:18:48.691734904,E4_Acc,2024-06-25 13:58:21.022049904,-25.0,-58.0,13.0
1904-01-01 00:18:48.722984904,E4_Acc,2024-06-25 13:58:21.053299904,-24.0,-58.0,13.0
1904-01-01 00:18:48.754234904,E4_Acc,2024-06-25 13:58:21.084549904,-24.0,-59.0,13.0
1904-01-01 00:18:48.785484904,E4_Acc,2024-06-25 13:58:21.115799904,-24.0,-59.0,13.0
1904-01-01 00:18:48.816734904,E4_Acc,2024-06-25 13:58:21.147049904,-24.0,-59.0,13.0
1904-01-01 00:18:48.847984904,E4_Acc,2024-06-25 13:58:21.178299904,-24.0,-59.0,13.0
1904-01-01 00:18:48.879244917,E4_Acc,2024-06-25 13:58:21.209559917,-24.0,-59.0,13.0
1904-01-01 00:18:48.910494917,E4_Acc,2024-06-25 13:58:21.240809917,-24.0,-59.0,13.0
1904-01-01 00:18:48.941744917,E4_Acc,2024-06-25 13:58:21.272059917,-24.0,-58.0,13.0
1904-01-01 00:18:48.972994917,E4_Acc,2024-06-25 13:58:21.303309917,-25.0,-59.0,13.0
1904-01-01 00:18:49.004244917,E4_Acc,2024-06-25 13:58:21.334559917,-25.0,-59.0,13.0
1904-01-01 00:18:49.035494917,E4_Acc,2024-06-25 13:58:21.365809917,-25.0,-59.0,13.0
1904-01-01 00:18:49.066754931,E4_Acc,2024-06-25 13:58:21.397069931,-25.0,-59.0,13.0
1904-01-01 00:18:49.098004931,E4_Acc,2024-06-25 13:58:21.428319931,-24.0,-59.0,13.0
1904-01-01 00:18:49.129254931,E4_Acc,2024-06-25 13:58:21.459569931,-24.0,-59.0,13.0
1904-01-01 00:18:49.160504931,E4_Acc,2024-06-25 13:58:21.490819931,-24.0,-58.0,13.0
1904-01-01 00:18:49.191754931,E4_Acc,2024-06-25 13:58:21.522069931,-24.0,-59.0,13.0
1904-01-01 00:18:49.223004931,E4_Acc,2024-06-25 13:58:21.553319931,-24.0,-59.0,13.0
1904-01-01 00:18:49.254254931,E4_Acc,2024-06-25 13:58:21.584569931,-24.0,-59.0,14.0
1904-01-01 00:18:49.285514945,E4_Acc,2024-06-25 13:58:21.615829945,-24.0,-59.0,14.0
1904-01-01 00:18:49.316764945,E4_Acc,2024-06-25 13:58:21.647079945,-24.0,-58.0,14.0
1904-01-01 00:18:49.348014945,E4_Acc,2024-06-25 13:58:21.678329945,-25.0,-59.0,14.0
1904-01-01 00:18:49.379264945,E4_Acc,2024-06-25 13:58:21.709579945,-25.0,-59.0,14.0
1904-01-01 00:18:49.410514945,E4_Acc,2024-06-25 13:58:21.740829945,-25.0,-58.0,14.0
1904-01-01 00:18:49.441764945,E4_Acc,2024-06-25 13:58:21.772079945,-25.0,-59.0,13.0
1904-01-01 00:18:49.473014945,E4_Acc,2024-06-25 13:58:21.803329945,-25.0,-58.0,13.0
1904-01-01 00:18:49.504274958,E4_Acc,2024-06-25 13:58:21.834589958,-25.0,-58.0,13.0
1904-01-01 00:18:49.535524958,E4_Acc,2024-06-25 13:58:21.865839958,-25.0,-58.0,13.0
1904-01-01 00:18:49.566774958,E4_Acc,2024-06-25 13:58:21.897089958,-25.0,-59.0,13.0
1904-01-01 00:18:49.598024958,E4_Acc,2024-06-25 13:58:21.928339958,-25.0,-59.0,13.0
1904-01-01 00:18:49.629274958,E4_Acc,2024-06-25 13:58:21.959589958,-25.0,-59.0,13.0
1904-01-01 00:18:49.660524958,E4_Acc,2024-06-25 13:58:21.990839958,-25.0,-59.0,13.0
1904-01-01 00:18:49.691774958,E4_Acc,2024-06-25 13:58:22.022089958,-24.0,-59.0,13.0
1904-01-01 00:18:49.723034972,E4_Acc,2024-06-25 13:58:22.053349972,-24.0,-58.0,13.0
1904-01-01 00:18:49.754284972,E4_Acc,2024-06-25 13:58:22.084599972,-24.0,-58.0,13.0
1904-01-01 00:18:49.785534972,E4_Acc,2024-06-25 13:58:22.115849972,-24.0,-58.0,13.0
1904-01-01 00:18:49.816784972,E4_Acc,2024-06-25 13:58:22.147099972,-25.0,-58.0,13.0
1904-01-01 00:18:49.848034972,E4_Acc,2024-06-25 13:58:22.178349972,-24.0,-58.0,13.0
1904-01-01 00:18:49.879284972,E4_Acc,2024-06-25 13:58:22.209599972,-25.0,-59.0,13.0
1904-01-01 00:18:49.910534972,E4_Acc,2024-06-25 13:58:22.240849972,-25.0,-59.0,13.0
1904-01-01 00:18:49.941794985,E4_Acc,2024-06-25 13:58:22.272109985,-25.0,-59.0,13.0
1904-01-01 00:18:49.973044985,E4_Acc,2024-06-25 13:58:22.303359985,-25.0,-59.0,13.0
1904-01-01 00:18:50.004294985,E4_Acc,2024-06-25 13:58:22.334609985,-25.0,-59.0,13.0
1904-01-01 00:18:50.035544985,E4_Acc,2024-06-25 13:58:22.365859985,-25.0,-58.0,13.0
1904-01-01 00:18:50.066794985,E4_Acc,2024-06-25 13:58:22.397109985,-25.0,-58.0,13.0
1904-01-01 00:18:50.098044985,E4_Acc,2024-06-25 13:58:22.428359985,-24.0,-59.0,13.0
1904-01-01 00:18:50.129294985,E4_Acc,2024-06-25 13:58:22.459609985,-25.0,-59.0,13.0
1904-01-01 00:18:50.160554999,E4_Acc,2024-06-25 13:58:22.490869999,-25.0,-59.0,13.0
1904-01-01 00:18:50.191804998,E4_Acc,2024-06-25 13:58:22.522119998,-25.0,-59.0,13.0
1904-01-01 00:18:50.223054999,E4_Acc,2024-06-25 13:58:22.553369999,-24.0,-59.0,13.0
1904-01-01 00:18:50.254304999,E4_Acc,2024-06-25 13:58:22.584619999,-24.0,-59.0,13.0
1904-01-01 00:18:50.285554999,E4_Acc,2024-06-25 13:58:22.615869999,-24.0,-59.0,13.0
1904-01-01 00:18:50.316804999,E4_Acc,2024-06-25 13:58:22.647119999,-24.0,-59.0,12.0
1904-01-01 00:18:50.348054999,E4_Acc,2024-06-25 13:58:22.678369999,-24.0,-59.0,12.0
1904-01-01 00:18:50.379315013,E4_Acc,2024-06-25 13:58:22.709630013,-24.0,-59.0,12.0
1904-01-01 00:18:50.410565013,E4_Acc,2024-06-25 13:58:22.740880013,-24.0,-59.0,12.0
1904-01-01 00:18:50.441815013,E4_Acc,2024-06-25 13:58:22.772130013,-24.0,-59.0,12.0
1904-01-01 00:18:50.473065013,E4_Acc,2024-06-25 13:58:22.803380013,-24.0,-59.0,12.0
1904-01-01 00:18:50.504315013,E4_Acc,2024-06-25 13:58:22.834630013,-24.0,-59.0,12.0
1904-01-01 00:18:50.535565013,E4_Acc,2024-06-25 13:58:22.865880013,-24.0,-59.0,13.0
1904-01-01 00:18:50.566815013,E4_Acc,2024-06-25 13:58:22.897130013,-24.0,-59.0,13.0
1904-01-01 00:18:50.598075026,E4_Acc,2024-06-25 13:58:22.928390026,-25.0,-59.0,13.0
1904-01-01 00:18:50.629325026,E4_Acc,2024-06-25 13:58:22.959640026,-24.0,-59.0,13.0
1904-01-01 00:18:50.660575026,E4_Acc,2024-06-25 13:58:22.990890026,-24.0,-59.0,12.0
1904-01-01 00:18:50.691825026,E4_Acc,2024-06-25 13:58:23.022140026,-24.0,-58.0,13.0
1904-01-01 00:18:50.723075026,E4_Acc,2024-06-25 13:58:23.053390026,-24.0,-59.0,13.0
1904-01-01 00:18:50.754325026,E4_Acc,2024-06-25 13:58:23.084640026,-24.0,-59.0,13.0
1904-01-01 00:18:50.785575026,E4_Acc,2024-06-25 13:58:23.115890026,-24.0,-59.0,13.0
1904-01-01 00:18:50.816835040,E4_Acc,2024-06-25 13:58:23.147150040,-24.0,-59.0,13.0
1904-01-01 00:18:50.848085040,E4_Acc,2024-06-25 13:58:23.178400040,-24.0,-59.0,13.0
1904-01-01 00:18:50.879335040,E4_Acc,2024-06-25 13:58:23.209650040,-24.0,-59.0,13.0
1904-01-01 00:18:50.910585040,E4_Acc,2024-06-25 13:58:23.240900040,-24.0,-59.0,13.0
1904-01-01 00:18:50.941835040,E4_Acc,2024-06-25 13:58:23.272150040,-24.0,-59.0,12.0
1904-01-01 00:18:50.973085040,E4_Acc,2024-06-25 13:58:23.303400040,-24.0,-59.0,12.0
1904-01-01 00:18:51.004335040,E4_Acc,2024-06-25 13:58:23.334650040,-24.0,-59.0,12.0
1904-01-01 00:18:51.035595053,E4_Acc,2024-06-25 13:58:23.365910053,-24.0,-59.0,12.0
1904-01-01 00:18:51.066845053,E4_Acc,2024-06-25 13:58:23.397160053,-24.0,-59.0,12.0
1904-01-01 00:18:51.098095053,E4_Acc,2024-06-25 13:58:23.428410053,-24.0,-59.0,12.0
1904-01-01 00:18:51.129345053,E4_Acc,2024-06-25 13:58:23.459660053,-24.0,-59.0,13.0
1904-01-01 00:18:51.160595053,E4_Acc,2024-06-25 13:58:23.490910053,-24.0,-59.0,13.0
1904-01-01 00:18:51.191845053,E4_Acc,2024-06-25 13:58:23.522160053,-24.0,-59.0,13.0
1904-01-01 00:18:51.223095053,E4_Acc,2024-06-25 13:58:23.553410053,-24.0,-59.0,13.0
1904-01-01 00:18:51.254355067,E4_Acc,2024-06-25 13:58:23.584670067,-24.0,-59.0,13.0
1904-01-01 00:18:51.285605067,E4_Acc,2024-06-25 13:58:23.615920067,-24.0,-59.0,13.0
1904-01-01 00:18:51.316855067,E4_Acc,2024-06-25 13:58:23.647170067,-24.0,-59.0,13.0
1904-01-01 00:18:51.348105067,E4_Acc,2024-06-25 13:58:23.678420067,-24.0,-59.0,13.0
1904-01-01 00:18:51.379355067,E4_Acc,2024-06-25 13:58:23.709670067,-24.0,-59.0,13.0
1904-01-01 00:18:51.410605067,E4_Acc,2024-06-25 13:58:23.740920067,-24.0,-58.0,13.0
1904-01-01 00:18:51.441865080,E4_Acc,2024-06-25 13:58:23.772180080,-23.0,-59.0,13.0
1904-01-01 00:18:51.473115080,E4_Acc,2024-06-25 13:58:23.803430080,-24.0,-59.0,13.0
1904-01-01 00:18:51.504365080,E4_Acc,2024-06-25 13:58:23.834680080,-24.0,-59.0,13.0
1904-01-01 00:18:51.535615080,E4_Acc,2024-06-25 13:58:23.865930080,-24.0,-60.0,13.0
1904-01-01 00:18:51.566865080,E4_Acc,2024-06-25 13:58:23.897180080,-24.0,-59.0,13.0
1904-01-01 00:18:51.598115080,E4_Acc,2024-06-25 13:58:23.928430080,-24.0,-58.0,13.0
1904-01-01 00:18:51.629365080,E4_Acc,2024-06-25 13:58:23.959680080,-24.0,-59.0,13.0
1904-01-01 00:18:51.660625094,E4_Acc,2024-06-25 13:58:23.990940094,-24.0,-59.0,13.0
1904-01-01 00:18:51.691875094,E4_Acc,2024-06-25 13:58:24.022190094,-24.0,-59.0,13.0
1904-01-01 00:18:51.723125094,E4_Acc,2024-06-25 13:58:24.053440094,-24.0,-59.0,13.0
1904-01-01 00:18:51.754375094,E4_Acc,2024-06-25 13:58:24.084690094,-24.0,-59.0,13.0
1904-01-01 00:18:51.785625094,E4_Acc,2024-06-25 13:58:24.115940094,-24.0,-58.0,13.0
1904-01-01 00:18:51.816875094,E4_Acc,2024-06-25 13:58:24.147190094,-24.0,-58.0,13.0
1904-01-01 00:18:51.848125094,E4_Acc,2024-06-25 13:58:24.178440094,-24.0,-59.0,13.0
1904-01-01 00:18:51.879385108,E4_Acc,2024-06-25 13:58:24.209700108,-25.0,-59.0,13.0
1904-01-01 00:18:51.910635108,E4_Acc,2024-06-25 13:58:24.240950108,-25.0,-59.0,13.0
1904-01-01 00:18:51.941885108,E4_Acc,2024-06-25 13:58:24.272200108,-24.0,-59.0,13.0
1904-01-01 00:18:51.973135108,E4_Acc,2024-06-25 13:58:24.303450108,-24.0,-58.0,13.0
1904-01-01 00:18:52.004385108,E4_Acc,2024-06-25 13:58:24.334700108,-24.0,-59.0,13.0
1904-01-01 00:18:52.035635108,E4_Acc,2024-06-25 13:58:24.365950108,-24.0,-59.0,13.0
1904-01-01 00:18:52.066885108,E4_Acc,2024-06-25 13:58:24.397200108,-24.0,-59.0,13.0
1904-01-01 00:18:52.098144883,E4_Acc,2024-06-25 13:58:24.428459883,-24.0,-59.0,13.0
1904-01-01 00:18:52.129394883,E4_Acc,2024-06-25 13:58:24.459709883,-24.0,-59.0,13.0
1904-01-01 00:18:52.160644883,E4_Acc,2024-06-25 13:58:24.490959883,-24.0,-58.0,13.0
1904-01-01 00:18:52.191894883,E4_Acc,2024-06-25 13:58:24.522209883,-25.0,-59.0,13.0
1904-01-01 00:18:52.223144883,E4_Acc,2024-06-25 13:58:24.553459883,-25.0,-59.0,13.0
1904-01-01 00:18:52.254394883,E4_Acc,2024-06-25 13:58:24.584709883,-24.0,-59.0,12.0
1904-01-01 00:18:52.285644883,E4_Acc,2024-06-25 13:58:24.615959883,-24.0,-58.0,13.0
1904-01-01 00:18:52.316904896,E4_Acc,2024-06-25 13:58:24.647219896,-24.0,-58.0,13.0
1904-01-01 00:18:52.348154896,E4_Acc,2024-06-25 13:58:24.678469896,-24.0,-59.0,13.0
1904-01-01 00:18:52.379404896,E4_Acc,2024-06-25 13:58:24.709719896,-25.0,-59.0,13.0
1904-01-01 00:18:52.410654896,E4_Acc,2024-06-25 13:58:24.740969896,-24.0,-59.0,13.0
1904-01-01 00:18:52.441904896,E4_Acc,2024-06-25 13:58:24.772219896,-25.0,-59.0,13.0
1904-01-01 00:18:52.473154896,E4_Acc,2024-06-25 13:58:24.803469896,-25.0,-58.0,13.0
1904-01-01 00:18:52.504404896,E4_Acc,2024-06-25 13:58:24.834719896,-24.0,-59.0,13.0
1904-01-01 00:18:52.535664910,E4_Acc,2024-06-25 13:58:24.865979910,-25.0,-59.0,13.0
1904-01-01 00:18:52.566914910,E4_Acc,2024-06-25 13:58:24.897229910,-25.0,-59.0,13.0
1904-01-01 00:18:52.598164910,E4_Acc,2024-06-25 13:58:24.928479910,-24.0,-58.0,13.0
1904-01-01 00:18:52.629414910,E4_Acc,2024-06-25 13:58:24.959729910,-25.0,-58.0,12.0
1904-01-01 00:18:52.660664910,E4_Acc,2024-06-25 13:58:24.990979910,-25.0,-59.0,13.0
1904-01-01 00:18:52.691914910,E4_Acc,2024-06-25 13:58:25.022229910,-25.0,-58.0,13.0
1904-01-01 00:18:52.723164910,E4_Acc,2024-06-25 13:58:25.053479910,-25.0,-59.0,13.0
1904-01-01 00:18:52.754424923,E4_Acc,2024-06-25 13:58:25.084739923,-25.0,-58.0,13.0
1904-01-01 00:18:52.785674923,E4_Acc,2024-06-25 13:58:25.115989923,-25.0,-58.0,13.0
1904-01-01 00:18:52.816924923,E4_Acc,2024-06-25 13:58:25.147239923,-25.0,-59.0,13.0
1904-01-01 00:18:52.848174923,E4_Acc,2024-06-25 13:58:25.178489923,-25.0,-59.0,13.0
1904-01-01 00:18:52.879424923,E4_Acc,2024-06-25 13:58:25.209739923,-25.0,-58.0,13.0
1904-01-01 00:18:52.910674923,E4_Acc,2024-06-25 13:58:25.240989923,-25.0,-58.0,13.0
1904-01-01 00:18:52.941924923,E4_Acc,2024-06-25 13:58:25.272239923,-25.0,-58.0,13.0
1904-01-01 00:18:52.973184937,E4_Acc,2024-06-25 13:58:25.303499937,-25.0,-59.0,13.0
1904-01-01 00:18:53.004434937,E4_Acc,2024-06-25 13:58:25.334749937,-25.0,-59.0,13.0
1904-01-01 00:18:53.035684937,E4_Acc,2024-06-25 13:58:25.365999937,-25.0,-59.0,13.0
1904-01-01 00:18:53.066934937,E4_Acc,2024-06-25 13:58:25.397249937,-25.0,-58.0,13.0
1904-01-01 00:18:53.098184937,E4_Acc,2024-06-25 13:58:25.428499937,-24.0,-58.0,13.0
1904-01-01 00:18:53.129434937,E4_Acc,2024-06-25 13:58:25.459749937,-24.0,-58.0,13.0
1904-01-01 00:18:53.160684937,E4_Acc,2024-06-25 13:58:25.490999937,-24.0,-58.0,12.0
1904-01-01 00:18:53.191944951,E4_Acc,2024-06-25 13:58:25.522259951,-24.0,-59.0,12.0
1904-01-01 00:18:53.223194951,E4_Acc,2024-06-25 13:58:25.553509951,-24.0,-59.0,12.0
1904-01-01 00:18:53.254444951,E4_Acc,2024-06-25 13:58:25.584759951,-24.0,-59.0,13.0
1904-01-01 00:18:53.285694951,E4_Acc,2024-06-25 13:58:25.616009951,-24.0,-58.0,13.0
1904-01-01 00:18:53.316944951,E4_Acc,2024-06-25 13:58:25.647259951,-24.0,-59.0,12.0
1904-01-01 00:18:53.348194951,E4_Acc,2024-06-25 13:58:25.678509951,-24.0,-59.0,12.0
1904-01-01 00:18:53.379444951,E4_Acc,2024-06-25 13:58:25.709759951,-24.0,-58.0,12.0
1904-01-01 00:18:53.410704964,E4_Acc,2024-06-25 13:58:25.741019964,-25.0,-59.0,13.0
1904-01-01 00:18:53.441954964,E4_Acc,2024-06-25 13:58:25.772269964,-24.0,-59.0,12.0
1904-01-01 00:18:53.473204964,E4_Acc,2024-06-25 13:58:25.803519964,-25.0,-59.0,13.0
1904-01-01 00:18:53.504454964,E4_Acc,2024-06-25 13:58:25.834769964,-25.0,-59.0,13.0
1904-01-01 00:18:53.535704964,E4_Acc,2024-06-25 13:58:25.866019964,-25.0,-59.0,13.0
1904-01-01 00:18:53.566954964,E4_Acc,2024-06-25 13:58:25.897269964,-25.0,-59.0,13.0
1904-01-01 00:18:53.598204964,E4_Acc,2024-06-25 13:58:25.928519964,-25.0,-59.0,13.0
1904-01-01 00:18:53.629464978,E4_Acc,2024-06-25 13:58:25.959779978,-25.0,-59.0,13.0
1904-01-01 00:18:53.660714978,E4_Acc,2024-06-25 13:58:25.991029978,-25.0,-59.0,13.0
1904-01-01 00:18:53.691964978,E4_Acc,2024-06-25 13:58:26.022279978,-25.0,-59.0,13.0
1904-01-01 00:18:53.723214978,E4_Acc,2024-06-25 13:58:26.053529978,-25.0,-59.0,13.0
1904-01-01 00:18:53.754464978,E4_Acc,2024-06-25 13:58:26.084779978,-25.0,-59.0,13.0
1904-01-01 00:18:53.785714978,E4_Acc,2024-06-25 13:58:26.116029978,-25.0,-59.0,13.0
1904-01-01 00:18:53.816964978,E4_Acc,2024-06-25 13:58:26.147279978,-25.0,-59.0,13.0
1904-01-01 00:18:53.848224991,E4_Acc,2024-06-25 13:58:26.178539991,-25.0,-59.0,13.0
1904-01-01 00:18:53.879474991,E4_Acc,2024-06-25 13:58:26.209789991,-25.0,-59.0,13.0
1904-01-01 00:18:53.910724991,E4_Acc,2024-06-25 13:58:26.241039991,-24.0,-58.0,13.0
1904-01-01 00:18:53.941974991,E4_Acc,2024-06-25 13:58:26.272289991,-25.0,-58.0,12.0
1904-01-01 00:18:53.973224991,E4_Acc,2024-06-25 13:58:26.303539991,-24.0,-58.0,12.0
1904-01-01 00:18:54.004474991,E4_Acc,2024-06-25 13:58:26.334789991,-24.0,-59.0,12.0
1904-01-01 00:18:54.035735005,E4_Acc,2024-06-25 13:58:26.366050005,-24.0,-59.0,13.0
1904-01-01 00:18:54.066985005,E4_Acc,2024-06-25 13:58:26.397300005,-24.0,-59.0,13.0
1904-01-01 00:18:54.098235005,E4_Acc,2024-06-25 13:58:26.428550005,-24.0,-58.0,12.0
1904-01-01 00:18:54.129485005,E4_Acc,2024-06-25 13:58:26.459800005,-24.0,-58.0,13.0
1904-01-01 00:18:54.160735005,E4_Acc,2024-06-25 13:58:26.491050005,-24.0,-59.0,13.0
1904-01-01 00:18:54.191985004,E4_Acc,2024-06-25 13:58:26.522300004,-24.0,-59.0,13.0
1904-01-01 00:18:54.223235005,E4_Acc,2024-06-25 13:58:26.553550005,-24.0,-59.0,13.0
1904-01-01 00:18:54.254495019,E4_Acc,2024-06-25 13:58:26.584810019,-25.0,-59.0,13.0
1904-01-01 00:18:54.285745019,E4_Acc,2024-06-25 13:58:26.616060019,-25.0,-59.0,13.0
1904-01-01 00:18:54.316995019,E4_Acc,2024-06-25 13:58:26.647310019,-25.0,-58.0,13.0
1904-01-01 00:18:54.348245019,E4_Acc,2024-06-25 13:58:26.678560019,-25.0,-59.0,13.0
1904-01-01 00:18:54.379495019,E4_Acc,2024-06-25 13:58:26.709810019,-25.0,-59.0,13.0
1904-01-01 00:18:54.410745019,E4_Acc,2024-06-25 13:58:26.741060019,-25.0,-59.0,13.0
1904-01-01 00:18:54.441995019,E4_Acc,2024-06-25 13:58:26.772310019,-25.0,-58.0,13.0
1904-01-01 00:18:54.473255032,E4_Acc,2024-06-25 13:58:26.803570032,-25.0,-58.0,13.0
1904-01-01 00:18:54.504505032,E4_Acc,2024-06-25 13:58:26.834820032,-25.0,-59.0,13.0
1904-01-01 00:18:54.535755032,E4_Acc,2024-06-25 13:58:26.866070032,-25.0,-59.0,13.0
1904-01-01 00:18:54.567005032,E4_Acc,2024-06-25 13:58:26.897320032,-25.0,-59.0,13.0
1904-01-01 00:18:54.598255032,E4_Acc,2024-06-25 13:58:26.928570032,-25.0,-59.0,13.0
1904-01-01 00:18:54.629505032,E4_Acc,2024-06-25 13:58:26.959820032,-25.0,-59.0,13.0
1904-01-01 00:18:54.660755032,E4_Acc,2024-06-25 13:58:26.991070032,-24.0,-59.0,13.0
1904-01-01 00:18:54.692015046,E4_Acc,2024-06-25 13:58:27.022330046,-24.0,-59.0,13.0
1904-01-01 00:18:54.723265046,E4_Acc,2024-06-25 13:58:27.053580046,-24.0,-58.0,13.0
1904-01-01 00:18:54.754515046,E4_Acc,2024-06-25 13:58:27.084830046,-24.0,-59.0,13.0
1904-01-01 00:18:54.785765046,E4_Acc,2024-06-25 13:58:27.116080046,-25.0,-59.0,13.0
1904-01-01 00:18:54.817015046,E4_Acc,2024-06-25 13:58:27.147330046,-25.0,-59.0,13.0
1904-01-01 00:18:54.848265046,E4_Acc,2024-06-25 13:58:27.178580046,-25.0,-59.0,13.0
1904-01-01 00:18:54.879515046,E4_Acc,2024-06-25 13:58:27.209830046,-25.0,-58.0,13.0
1904-01-01 00:18:54.910775059,E4_Acc,2024-06-25 13:58:27.241090059,-25.0,-58.0,13.0
1904-01-01 00:18:54.942025059,E4_Acc,2024-06-25 13:58:27.272340059,-25.0,-58.0,13.0
1904-01-01 00:18:54.973275059,E4_Acc,2024-06-25 13:58:27.303590059,-25.0,-59.0,12.0
1904-01-01 00:18:55.004525059,E4_Acc,2024-06-25 13:58:27.334840059,-25.0,-59.0,12.0
1904-01-01 00:18:55.035775059,E4_Acc,2024-06-25 13:58:27.366090059,-25.0,-58.0,12.0
1904-01-01 00:18:55.067025059,E4_Acc,2024-06-25 13:58:27.397340059,-24.0,-58.0,12.0
1904-01-01 00:18:55.098275059,E4_Acc,2024-06-25 13:58:27.428590059,-25.0,-58.0,12.0
1904-01-01 00:18:55.129535073,E4_Acc,2024-06-25 13:58:27.459850073,-25.0,-58.0,13.0
1904-01-01 00:18:55.160785073,E4_Acc,2024-06-25 13:58:27.491100073,-25.0,-59.0,13.0
1904-01-01 00:18:55.192035073,E4_Acc,2024-06-25 13:58:27.522350073,-25.0,-59.0,13.0
1904-01-01 00:18:55.223285073,E4_Acc,2024-06-25 13:58:27.553600073,-25.0,-59.0,13.0
1904-01-01 00:18:55.254535073,E4_Acc,2024-06-25 13:58:27.584850073,-25.0,-58.0,13.0
1904-01-01 00:18:55.285785073,E4_Acc,2024-06-25 13:58:27.616100073,-25.0,-59.0,14.0
1904-01-01 00:18:55.317035073,E4_Acc,2024-06-25 13:58:27.647350073,-25.0,-59.0,14.0
1904-01-01 00:18:55.348295086,E4_Acc,2024-06-25 13:58:27.678610086,-25.0,-59.0,13.0
1904-01-01 00:18:55.379545086,E4_Acc,2024-06-25 13:58:27.709860086,-25.0,-59.0,13.0
1904-01-01 00:18:55.410795086,E4_Acc,2024-06-25 13:58:27.741110086,-25.0,-58.0,13.0
1904-01-01 00:18:55.442045086,E4_Acc,2024-06-25 13:58:27.772360086,-25.0,-58.0,13.0
1904-01-01 00:18:55.473295086,E4_Acc,2024-06-25 13:58:27.803610086,-25.0,-59.0,13.0
1904-01-01 00:18:55.504545086,E4_Acc,2024-06-25 13:58:27.834860086,-25.0,-58.0,13.0
1904-01-01 00:18:55.535795086,E4_Acc,2024-06-25 13:58:27.866110086,-25.0,-58.0,13.0
1904-01-01 00:18:55.567055100,E4_Acc,2024-06-25 13:58:27.897370100,-25.0,-59.0,13.0
1904-01-01 00:18:55.598305100,E4_Acc,2024-06-25 13:58:27.928620100,-25.0,-58.0,13.0
1904-01-01 00:18:55.629555100,E4_Acc,2024-06-25 13:58:27.959870100,-25.0,-58.0,13.0
1904-01-01 00:18:55.660805100,E4_Acc,2024-06-25 13:58:27.991120100,-25.0,-59.0,13.0
1904-01-01 00:18:55.692055100,E4_Acc,2024-06-25 13:58:28.022370100,-25.0,-58.0,13.0
1904-01-01 00:18:55.723305100,E4_Acc,2024-06-25 13:58:28.053620100,-25.0,-58.0,13.0
1904-01-01 00:18:55.754555100,E4_Acc,2024-06-25 13:58:28.084870100,-25.0,-58.0,13.0
1904-01-01 00:18:55.785815114,E4_Acc,2024-06-25 13:58:28.116130114,-24.0,-58.0,13.0
1904-01-01 00:18:55.817065114,E4_Acc,2024-06-25 13:58:28.147380114,-25.0,-59.0,13.0
1904-01-01 00:18:55.848315114,E4_Acc,2024-06-25 13:58:28.178630114,-25.0,-58.0,13.0
1904-01-01 00:18:55.879565114,E4_Acc,2024-06-25 13:58:28.209880114,-24.0,-58.0,13.0
1904-01-01 00:18:55.910815114,E4_Acc,2024-06-25 13:58:28.241130114,-25.0,-58.0,13.0
1904-01-01 00:18:55.942065114,E4_Acc,2024-06-25 13:58:28.272380114,-25.0,-58.0,13.0
1904-01-01 00:18:55.973315114,E4_Acc,2024-06-25 13:58:28.303630114,-25.0,-59.0,13.0
1904-01-01 00:18:56.004574889,E4_Acc,2024-06-25 13:58:28.334889889,-25.0,-59.0,13.0
1904-01-01 00:18:56.035824889,E4_Acc,2024-06-25 13:58:28.366139889,-25.0,-59.0,13.0
1904-01-01 00:18:56.067074889,E4_Acc,2024-06-25 13:58:28.397389889,-25.0,-58.0,13.0
1904-01-01 00:18:56.098324889,E4_Acc,2024-06-25 13:58:28.428639889,-25.0,-58.0,13.0
1904-01-01 00:18:56.129574889,E4_Acc,2024-06-25 13:58:28.459889889,-25.0,-58.0,13.0
1904-01-01 00:18:56.160824889,E4_Acc,2024-06-25 13:58:28.491139889,-25.0,-59.0,13.0
1904-01-01 00:18:56.192074889,E4_Acc,2024-06-25 13:58:28.522389889,-25.0,-59.0,13.0
1904-01-01 00:18:56.223334902,E4_Acc,2024-06-25 13:58:28.553649902,-25.0,-58.0,13.0
1904-01-01 00:18:56.254584902,E4_Acc,2024-06-25 13:58:28.584899902,-24.0,-59.0,13.0
1904-01-01 00:18:56.285834902,E4_Acc,2024-06-25 13:58:28.616149902,-25.0,-58.0,13.0
1904-01-01 00:18:56.317084902,E4_Acc,2024-06-25 13:58:28.647399902,-25.0,-59.0,13.0
1904-01-01 00:18:56.348334902,E4_Acc,2024-06-25 13:58:28.678649902,-25.0,-59.0,13.0
1904-01-01 00:18:56.379584902,E4_Acc,2024-06-25 13:58:28.709899902,-25.0,-58.0,13.0
1904-01-01 00:18:56.410844916,E4_Acc,2024-06-25 13:58:28.741159916,-25.0,-59.0,13.0
1904-01-01 00:18:56.442094916,E4_Acc,2024-06-25 13:58:28.772409916,-25.0,-59.0,13.0
1904-01-01 00:18:56.473344916,E4_Acc,2024-06-25 13:58:28.803659916,-25.0,-59.0,13.0
1904-01-01 00:18:56.504594916,E4_Acc,2024-06-25 13:58:28.834909916,-25.0,-59.0,13.0
1904-01-01 00:18:56.535844916,E4_Acc,2024-06-25 13:58:28.866159916,-25.0,-59.0,13.0
1904-01-01 00:18:56.567094916,E4_Acc,2024-06-25 13:58:28.897409916,-25.0,-59.0,13.0
1904-01-01 00:18:56.598344916,E4_Acc,2024-06-25 13:58:28.928659916,-24.0,-59.0,13.0
1904-01-01 00:18:56.629604930,E4_Acc,2024-06-25 13:58:28.959919930,-24.0,-59.0,12.0
1904-01-01 00:18:56.660854930,E4_Acc,2024-06-25 13:58:28.991169930,-24.0,-59.0,12.0
1904-01-01 00:18:56.692104930,E4_Acc,2024-06-25 13:58:29.022419930,-24.0,-59.0,13.0
1904-01-01 00:18:56.723354930,E4_Acc,2024-06-25 13:58:29.053669930,-24.0,-59.0,13.0
1904-01-01 00:18:56.754604930,E4_Acc,2024-06-25 13:58:29.084919930,-24.0,-59.0,13.0
1904-01-01 00:18:56.785854930,E4_Acc,2024-06-25 13:58:29.116169930,-24.0,-59.0,13.0
1904-01-01 00:18:56.817104930,E4_Acc,2024-06-25 13:58:29.147419930,-24.0,-59.0,13.0
1904-01-01 00:18:56.848364943,E4_Acc,2024-06-25 13:58:29.178679943,-24.0,-58.0,13.0
1904-01-01 00:18:56.879614943,E4_Acc,2024-06-25 13:58:29.209929943,-24.0,-58.0,12.0
1904-01-01 00:18:56.910864943,E4_Acc,2024-06-25 13:58:29.241179943,-25.0,-58.0,12.0
1904-01-01 00:18:56.942114943,E4_Acc,2024-06-25 13:58:29.272429943,-25.0,-58.0,13.0
1904-01-01 00:18:56.973364943,E4_Acc,2024-06-25 13:58:29.303679943,-25.0,-58.0,12.0
1904-01-01 00:18:57.004614943,E4_Acc,2024-06-25 13:58:29.334929943,-26.0,-58.0,12.0
1904-01-01 00:18:57.035864943,E4_Acc,2024-06-25 13:58:29.366179943,-27.0,-58.0,12.0
1904-01-01 00:18:57.067124957,E4_Acc,2024-06-25 13:58:29.397439957,-27.0,-58.0,12.0
1904-01-01 00:18:57.098374957,E4_Acc,2024-06-25 13:58:29.428689957,-26.0,-58.0,12.0
1904-01-01 00:18:57.129624957,E4_Acc,2024-06-25 13:58:29.459939957,-26.0,-59.0,12.0
1904-01-01 00:18:57.160874957,E4_Acc,2024-06-25 13:58:29.491189957,-25.0,-59.0,12.0
1904-01-01 00:18:57.192124957,E4_Acc,2024-06-25 13:58:29.522439957,-24.0,-59.0,12.0
1904-01-01 00:18:57.223374957,E4_Acc,2024-06-25 13:58:29.553689957,-24.0,-60.0,12.0
1904-01-01 00:18:57.254624957,E4_Acc,2024-06-25 13:58:29.584939957,-23.0,-60.0,12.0
1904-01-01 00:18:57.285884970,E4_Acc,2024-06-25 13:58:29.616199970,-23.0,-60.0,12.0
1904-01-01 00:18:57.317134970,E4_Acc,2024-06-25 13:58:29.647449970,-22.0,-59.0,12.0
1904-01-01 00:18:57.348384970,E4_Acc,2024-06-25 13:58:29.678699970,-22.0,-60.0,13.0
1904-01-01 00:18:57.379634970,E4_Acc,2024-06-25 13:58:29.709949970,-22.0,-60.0,13.0
1904-01-01 00:18:57.410884970,E4_Acc,2024-06-25 13:58:29.741199970,-22.0,-60.0,13.0
1904-01-01 00:18:57.442134970,E4_Acc,2024-06-25 13:58:29.772449970,-22.0,-61.0,13.0
1904-01-01 00:18:57.473384970,E4_Acc,2024-06-25 13:58:29.803699970,-22.0,-60.0,13.0
1904-01-01 00:18:57.504644984,E4_Acc,2024-06-25 13:58:29.834959984,-22.0,-59.0,12.0
1904-01-01 00:18:57.535894984,E4_Acc,2024-06-25 13:58:29.866209984,-23.0,-60.0,13.0
1904-01-01 00:18:57.567144984,E4_Acc,2024-06-25 13:58:29.897459984,-23.0,-59.0,13.0
1904-01-01 00:18:57.598394984,E4_Acc,2024-06-25 13:58:29.928709984,-23.0,-59.0,13.0
1904-01-01 00:18:57.629644984,E4_Acc,2024-06-25 13:58:29.959959984,-24.0,-60.0,13.0
1904-01-01 00:18:57.660894984,E4_Acc,2024-06-25 13:58:29.991209984,-24.0,-60.0,13.0
1904-01-01 00:18:57.692144984,E4_Acc,2024-06-25 13:58:30.022459984,-24.0,-60.0,13.0
1904-01-01 00:18:57.723404997,E4_Acc,2024-06-25 13:58:30.053719997,-24.0,-59.0,12.0
1904-01-01 00:18:57.754654997,E4_Acc,2024-06-25 13:58:30.084969997,-24.0,-58.0,12.0
1904-01-01 00:18:57.785904997,E4_Acc,2024-06-25 13:58:30.116219997,-23.0,-58.0,12.0
1904-01-01 00:18:57.817154997,E4_Acc,2024-06-25 13:58:30.147469997,-24.0,-59.0,12.0
1904-01-01 00:18:57.848404997,E4_Acc,2024-06-25 13:58:30.178719997,-24.0,-59.0,12.0
1904-01-01 00:18:57.879654997,E4_Acc,2024-06-25 13:58:30.209969997,-23.0,-59.0,12.0
1904-01-01 00:18:57.910904997,E4_Acc,2024-06-25 13:58:30.241219997,-23.0,-59.0,12.0
1904-01-01 00:18:57.942165011,E4_Acc,2024-06-25 13:58:30.272480011,-23.0,-58.0,12.0
1904-01-01 00:18:57.973415011,E4_Acc,2024-06-25 13:58:30.303730011,-23.0,-59.0,12.0
1904-01-01 00:18:58.004665011,E4_Acc,2024-06-25 13:58:30.334980011,-23.0,-59.0,12.0
1904-01-01 00:18:58.035915011,E4_Acc,2024-06-25 13:58:30.366230011,-24.0,-59.0,12.0
1904-01-01 00:18:58.067165011,E4_Acc,2024-06-25 13:58:30.397480011,-24.0,-59.0,12.0
1904-01-01 00:18:58.098415011,E4_Acc,2024-06-25 13:58:30.428730011,-25.0,-59.0,12.0
1904-01-01 00:18:58.129665011,E4_Acc,2024-06-25 13:58:30.459980011,-25.0,-59.0,13.0
1904-01-01 00:18:58.160925025,E4_Acc,2024-06-25 13:58:30.491240025,-25.0,-59.0,13.0
1904-01-01 00:18:58.192175024,E4_Acc,2024-06-25 13:58:30.522490024,-25.0,-59.0,13.0
1904-01-01 00:18:58.223425025,E4_Acc,2024-06-25 13:58:30.553740025,-25.0,-59.0,13.0
1904-01-01 00:18:58.254675025,E4_Acc,2024-06-25 13:58:30.584990025,-25.0,-59.0,12.0
1904-01-01 00:18:58.285925025,E4_Acc,2024-06-25 13:58:30.616240025,-24.0,-60.0,13.0
1904-01-01 00:18:58.317175025,E4_Acc,2024-06-25 13:58:30.647490025,-24.0,-59.0,13.0
1904-01-01 00:18:58.348425025,E4_Acc,2024-06-25 13:58:30.678740025,-23.0,-60.0,12.0
1904-01-01 00:18:58.379685038,E4_Acc,2024-06-25 13:58:30.710000038,-23.0,-59.0,12.0
1904-01-01 00:18:58.410935038,E4_Acc,2024-06-25 13:58:30.741250038,-22.0,-59.0,12.0
1904-01-01 00:18:58.442185038,E4_Acc,2024-06-25 13:58:30.772500038,-23.0,-60.0,13.0
1904-01-01 00:18:58.473435038,E4_Acc,2024-06-25 13:58:30.803750038,-22.0,-60.0,13.0
1904-01-01 00:18:58.504685038,E4_Acc,2024-06-25 13:58:30.835000038,-23.0,-59.0,13.0
1904-01-01 00:18:58.535935038,E4_Acc,2024-06-25 13:58:30.866250038,-23.0,-59.0,13.0
1904-01-01 00:18:58.567185038,E4_Acc,2024-06-25 13:58:30.897500038,-23.0,-59.0,13.0
1904-01-01 00:18:58.598445052,E4_Acc,2024-06-25 13:58:30.928760052,-23.0,-59.0,13.0
1904-01-01 00:18:58.629695052,E4_Acc,2024-06-25 13:58:30.960010052,-23.0,-59.0,12.0
1904-01-01 00:18:58.660945052,E4_Acc,2024-06-25 13:58:30.991260052,-23.0,-59.0,12.0
1904-01-01 00:18:58.692195052,E4_Acc,2024-06-25 13:58:31.022510052,-23.0,-59.0,12.0
1904-01-01 00:18:58.723445052,E4_Acc,2024-06-25 13:58:31.053760052,-23.0,-59.0,12.0
1904-01-01 00:18:58.754695052,E4_Acc,2024-06-25 13:58:31.085010052,-23.0,-59.0,11.0
1904-01-01 00:18:58.785955065,E4_Acc,2024-06-25 13:58:31.116270065,-23.0,-59.0,12.0
1904-01-01 00:18:58.817205065,E4_Acc,2024-06-25 13:58:31.147520065,-23.0,-59.0,11.0
1904-01-01 00:18:58.848455065,E4_Acc,2024-06-25 13:58:31.178770065,-23.0,-59.0,12.0
1904-01-01 00:18:58.879705065,E4_Acc,2024-06-25 13:58:31.210020065,-24.0,-59.0,12.0
1904-01-01 00:18:58.910955065,E4_Acc,2024-06-25 13:58:31.241270065,-24.0,-59.0,12.0
1904-01-01 00:18:58.942205065,E4_Acc,2024-06-25 13:58:31.272520065,-24.0,-59.0,12.0
1904-01-01 00:18:58.973455065,E4_Acc,2024-06-25 13:58:31.303770065,-24.0,-59.0,13.0
1904-01-01 00:18:59.004715079,E4_Acc,2024-06-25 13:58:31.335030079,-25.0,-59.0,13.0
1904-01-01 00:18:59.035965079,E4_Acc,2024-06-25 13:58:31.366280079,-25.0,-59.0,13.0
1904-01-01 00:18:59.067215079,E4_Acc,2024-06-25 13:58:31.397530079,-25.0,-59.0,13.0
1904-01-01 00:18:59.098465079,E4_Acc,2024-06-25 13:58:31.428780079,-25.0,-59.0,13.0
1904-01-01 00:18:59.129715079,E4_Acc,2024-06-25 13:58:31.460030079,-25.0,-58.0,13.0
1904-01-01 00:18:59.160965079,E4_Acc,2024-06-25 13:58:31.491280079,-26.0,-59.0,13.0
1904-01-01 00:18:59.192215079,E4_Acc,2024-06-25 13:58:31.522530079,-26.0,-59.0,13.0
1904-01-01 00:18:59.223475092,E4_Acc,2024-06-25 13:58:31.553790092,-26.0,-59.0,13.0
1904-01-01 00:18:59.254725092,E4_Acc,2024-06-25 13:58:31.585040092,-26.0,-59.0,13.0
1904-01-01 00:18:59.285975092,E4_Acc,2024-06-25 13:58:31.616290092,-25.0,-59.0,13.0
1904-01-01 00:18:59.317225092,E4_Acc,2024-06-25 13:58:31.647540092,-25.0,-59.0,13.0
1904-01-01 00:18:59.348475092,E4_Acc,2024-06-25 13:58:31.678790092,-25.0,-59.0,13.0
1904-01-01 00:18:59.379725092,E4_Acc,2024-06-25 13:58:31.710040092,-24.0,-59.0,13.0
1904-01-01 00:18:59.410975092,E4_Acc,2024-06-25 13:58:31.741290092,-24.0,-59.0,13.0
1904-01-01 00:18:59.442235106,E4_Acc,2024-06-25 13:58:31.772550106,-24.0,-59.0,12.0
1904-01-01 00:18:59.473485106,E4_Acc,2024-06-25 13:58:31.803800106,-23.0,-59.0,12.0
1904-01-01 00:18:59.504735106,E4_Acc,2024-06-25 13:58:31.835050106,-24.0,-59.0,12.0
1904-01-01 00:18:59.535985106,E4_Acc,2024-06-25 13:58:31.866300106,-24.0,-59.0,12.0
1904-01-01 00:18:59.567235106,E4_Acc,2024-06-25 13:58:31.897550106,-24.0,-59.0,12.0
1904-01-01 00:18:59.598485106,E4_Acc,2024-06-25 13:58:31.928800106,-24.0,-59.0,12.0
1904-01-01 00:18:59.629735106,E4_Acc,2024-06-25 13:58:31.960050106,-24.0,-59.0,12.0
1904-01-01 00:18:59.660994881,E4_Acc,2024-06-25 13:58:31.991309881,-24.0,-59.0,13.0
1904-01-01 00:18:59.692244881,E4_Acc,2024-06-25 13:58:32.022559881,-24.0,-59.0,13.0
1904-01-01 00:18:59.723494881,E4_Acc,2024-06-25 13:58:32.053809881,-24.0,-59.0,12.0
1904-01-01 00:18:59.754744881,E4_Acc,2024-06-25 13:58:32.085059881,-24.0,-59.0,12.0
1904-01-01 00:18:59.785994881,E4_Acc,2024-06-25 13:58:32.116309881,-24.0,-59.0,13.0
1904-01-01 00:18:59.817244881,E4_Acc,2024-06-25 13:58:32.147559881,-24.0,-59.0,12.0
1904-01-01 00:18:59.848494881,E4_Acc,2024-06-25 13:58:32.178809881,-25.0,-59.0,13.0
1904-01-01 00:18:59.879754895,E4_Acc,2024-06-25 13:58:32.210069895,-24.0,-59.0,13.0
1904-01-01 00:18:59.911004895,E4_Acc,2024-06-25 13:58:32.241319895,-24.0,-59.0,13.0
1904-01-01 00:18:59.942254895,E4_Acc,2024-06-25 13:58:32.272569895,-25.0,-59.0,13.0
1904-01-01 00:18:59.973504895,E4_Acc,2024-06-25 13:58:32.303819895,-24.0,-59.0,13.0
1904-01-01 00:19:00.004754895,E4_Acc,2024-06-25 13:58:32.335069895,-24.0,-59.0,13.0
1904-01-01 00:19:00.036004895,E4_Acc,2024-06-25 13:58:32.366319895,-24.0,-59.0,13.0
1904-01-01 00:19:00.067254895,E4_Acc,2024-06-25 13:58:32.397569895,-24.0,-59.0,13.0
1904-01-01 00:19:00.098514908,E4_Acc,2024-06-25 13:58:32.428829908,-24.0,-59.0,13.0
1904-01-01 00:19:00.129764908,E4_Acc,2024-06-25 13:58:32.460079908,-24.0,-59.0,13.0
1904-01-01 00:19:00.161014908,E4_Acc,2024-06-25 13:58:32.491329908,-24.0,-59.0,13.0
1904-01-01 00:19:00.192264908,E4_Acc,2024-06-25 13:58:32.522579908,-24.0,-58.0,13.0
1904-01-01 00:19:00.223514908,E4_Acc,2024-06-25 13:58:32.553829908,-24.0,-59.0,13.0
1904-01-01 00:19:00.254764908,E4_Acc,2024-06-25 13:58:32.585079908,-24.0,-59.0,13.0
1904-01-01 00:19:00.286014908,E4_Acc,2024-06-25 13:58:32.616329908,-24.0,-59.0,12.0
1904-01-01 00:19:00.317274922,E4_Acc,2024-06-25 13:58:32.647589922,-24.0,-59.0,13.0
1904-01-01 00:19:00.348524922,E4_Acc,2024-06-25 13:58:32.678839922,-24.0,-59.0,13.0
1904-01-01 00:19:00.379774922,E4_Acc,2024-06-25 13:58:32.710089922,-24.0,-59.0,13.0
1904-01-01 00:19:00.411024922,E4_Acc,2024-06-25 13:58:32.741339922,-24.0,-59.0,13.0
1904-01-01 00:19:00.442274922,E4_Acc,2024-06-25 13:58:32.772589922,-24.0,-59.0,13.0
1904-01-01 00:19:00.473524922,E4_Acc,2024-06-25 13:58:32.803839922,-24.0,-59.0,13.0
1904-01-01 00:19:00.504774922,E4_Acc,2024-06-25 13:58:32.835089922,-24.0,-59.0,13.0
1904-01-01 00:19:00.536034936,E4_Acc,2024-06-25 13:58:32.866349936,-24.0,-59.0,13.0
1904-01-01 00:19:00.567284936,E4_Acc,2024-06-25 13:58:32.897599936,-24.0,-59.0,13.0
1904-01-01 00:19:00.598534936,E4_Acc,2024-06-25 13:58:32.928849936,-24.0,-59.0,13.0
1904-01-01 00:19:00.629784936,E4_Acc,2024-06-25 13:58:32.960099936,-24.0,-59.0,13.0
1904-01-01 00:19:00.661034936,E4_Acc,2024-06-25 13:58:32.991349936,-24.0,-59.0,12.0
1904-01-01 00:19:00.692284936,E4_Acc,2024-06-25 13:58:33.022599936,-24.0,-59.0,13.0
1904-01-01 00:19:00.723534936,E4_Acc,2024-06-25 13:58:33.053849936,-25.0,-59.0,13.0
1904-01-01 00:19:00.754794949,E4_Acc,2024-06-25 13:58:33.085109949,-25.0,-59.0,13.0
1904-01-01 00:19:00.786044949,E4_Acc,2024-06-25 13:58:33.116359949,-24.0,-59.0,13.0
1904-01-01 00:19:00.817294949,E4_Acc,2024-06-25 13:58:33.147609949,-24.0,-59.0,13.0
1904-01-01 00:19:00.848544949,E4_Acc,2024-06-25 13:58:33.178859949,-24.0,-59.0,13.0
1904-01-01 00:19:00.879794949,E4_Acc,2024-06-25 13:58:33.210109949,-24.0,-59.0,13.0
1904-01-01 00:19:00.911044949,E4_Acc,2024-06-25 13:58:33.241359949,-24.0,-59.0,12.0
1904-01-01 00:19:00.942294949,E4_Acc,2024-06-25 13:58:33.272609949,-24.0,-59.0,12.0
1904-01-01 00:19:00.973554963,E4_Acc,2024-06-25 13:58:33.303869963,-24.0,-59.0,12.0
1904-01-01 00:19:01.004804963,E4_Acc,2024-06-25 13:58:33.335119963,-24.0,-59.0,12.0
1904-01-01 00:19:01.036054963,E4_Acc,2024-06-25 13:58:33.366369963,-24.0,-59.0,12.0
1904-01-01 00:19:01.067304963,E4_Acc,2024-06-25 13:58:33.397619963,-24.0,-58.0,12.0
1904-01-01 00:19:01.098554963,E4_Acc,2024-06-25 13:58:33.428869963,-24.0,-58.0,12.0
1904-01-01 00:19:01.129804963,E4_Acc,2024-06-25 13:58:33.460119963,-24.0,-59.0,13.0
1904-01-01 00:19:01.161054963,E4_Acc,2024-06-25 13:58:33.491369963,-24.0,-59.0,13.0
1904-01-01 00:19:01.192314976,E4_Acc,2024-06-25 13:58:33.522629976,-24.0,-59.0,13.0
1904-01-01 00:19:01.223564976,E4_Acc,2024-06-25 13:58:33.553879976,-24.0,-59.0,13.0
1904-01-01 00:19:01.254814976,E4_Acc,2024-06-25 13:58:33.585129976,-24.0,-59.0,13.0
1904-01-01 00:19:01.286064976,E4_Acc,2024-06-25 13:58:33.616379976,-24.0,-58.0,13.0
1904-01-01 00:19:01.317314976,E4_Acc,2024-06-25 13:58:33.647629976,-24.0,-59.0,13.0
1904-01-01 00:19:01.348564976,E4_Acc,2024-06-25 13:58:33.678879976,-24.0,-59.0,13.0
1904-01-01 00:19:01.379824990,E4_Acc,2024-06-25 13:58:33.710139990,-24.0,-59.0,13.0
1904-01-01 00:19:01.411074990,E4_Acc,2024-06-25 13:58:33.741389990,-24.0,-59.0,13.0
1904-01-01 00:19:01.442324990,E4_Acc,2024-06-25 13:58:33.772639990,-24.0,-59.0,13.0
1904-01-01 00:19:01.473574990,E4_Acc,2024-06-25 13:58:33.803889990,-24.0,-59.0,12.0
1904-01-01 00:19:01.504824990,E4_Acc,2024-06-25 13:58:33.835139990,-24.0,-59.0,13.0
1904-01-01 00:19:01.536074990,E4_Acc,2024-06-25 13:58:33.866389990,-24.0,-59.0,13.0
1904-01-01 00:19:01.567324990,E4_Acc,2024-06-25 13:58:33.897639990,-24.0,-59.0,14.0
1904-01-01 00:19:01.598585003,E4_Acc,2024-06-25 13:58:33.928900003,-24.0,-59.0,13.0
1904-01-01 00:19:01.629835003,E4_Acc,2024-06-25 13:58:33.960150003,-24.0,-59.0,13.0
1904-01-01 00:19:01.661085003,E4_Acc,2024-06-25 13:58:33.991400003,-24.0,-58.0,14.0
1904-01-01 00:19:01.692335003,E4_Acc,2024-06-25 13:58:34.022650003,-24.0,-58.0,14.0
1904-01-01 00:19:01.723585003,E4_Acc,2024-06-25 13:58:34.053900003,-24.0,-59.0,13.0
1904-01-01 00:19:01.754835003,E4_Acc,2024-06-25 13:58:34.085150003,-24.0,-59.0,13.0
1904-01-01 00:19:01.786085003,E4_Acc,2024-06-25 13:58:34.116400003,-24.0,-59.0,13.0
1904-01-01 00:19:01.817345017,E4_Acc,2024-06-25 13:58:34.147660017,-24.0,-59.0,13.0
1904-01-01 00:19:01.848595017,E4_Acc,2024-06-25 13:58:34.178910017,-24.0,-58.0,13.0
1904-01-01 00:19:01.879845017,E4_Acc,2024-06-25 13:58:34.210160017,-24.0,-58.0,13.0
1904-01-01 00:19:01.911095017,E4_Acc,2024-06-25 13:58:34.241410017,-24.0,-59.0,13.0
1904-01-01 00:19:01.942345017,E4_Acc,2024-06-25 13:58:34.272660017,-24.0,-59.0,13.0
1904-01-01 00:19:01.973595017,E4_Acc,2024-06-25 13:58:34.303910017,-24.0,-58.0,13.0
1904-01-01 00:19:02.004845017,E4_Acc,2024-06-25 13:58:34.335160017,-24.0,-58.0,13.0
1904-01-01 00:19:02.036105031,E4_Acc,2024-06-25 13:58:34.366420031,-24.0,-59.0,13.0
1904-01-01 00:19:02.067355031,E4_Acc,2024-06-25 13:58:34.397670031,-24.0,-59.0,13.0
1904-01-01 00:19:02.098605031,E4_Acc,2024-06-25 13:58:34.428920031,-24.0,-59.0,13.0
1904-01-01 00:19:02.129855031,E4_Acc,2024-06-25 13:58:34.460170031,-24.0,-58.0,13.0
1904-01-01 00:19:02.161105031,E4_Acc,2024-06-25 13:58:34.491420031,-24.0,-58.0,13.0
1904-01-01 00:19:02.192355031,E4_Acc,2024-06-25 13:58:34.522670031,-24.0,-58.0,13.0
1904-01-01 00:19:02.223605031,E4_Acc,2024-06-25 13:58:34.553920031,-24.0,-59.0,14.0
1904-01-01 00:19:02.254865044,E4_Acc,2024-06-25 13:58:34.585180044,-25.0,-59.0,13.0
1904-01-01 00:19:02.286115044,E4_Acc,2024-06-25 13:58:34.616430044,-25.0,-59.0,13.0
1904-01-01 00:19:02.317365044,E4_Acc,2024-06-25 13:58:34.647680044,-25.0,-59.0,13.0
1904-01-01 00:19:02.348615044,E4_Acc,2024-06-25 13:58:34.678930044,-25.0,-58.0,13.0
1904-01-01 00:19:02.379865044,E4_Acc,2024-06-25 13:58:34.710180044,-25.0,-59.0,13.0
1904-01-01 00:19:02.411115044,E4_Acc,2024-06-25 13:58:34.741430044,-25.0,-59.0,13.0
1904-01-01 00:19:02.442365044,E4_Acc,2024-06-25 13:58:34.772680044,-25.0,-59.0,13.0
1904-01-01 00:19:02.473625058,E4_Acc,2024-06-25 13:58:34.803940058,-25.0,-58.0,13.0
1904-01-01 00:19:02.504875058,E4_Acc,2024-06-25 13:58:34.835190058,-24.0,-58.0,13.0
1904-01-01 00:19:02.536125058,E4_Acc,2024-06-25 13:58:34.866440058,-24.0,-59.0,13.0
1904-01-01 00:19:02.567375058,E4_Acc,2024-06-25 13:58:34.897690058,-25.0,-59.0,13.0
1904-01-01 00:19:02.598625058,E4_Acc,2024-06-25 13:58:34.928940058,-24.0,-59.0,13.0
1904-01-01 00:19:02.629875058,E4_Acc,2024-06-25 13:58:34.960190058,-24.0,-59.0,13.0
1904-01-01 00:19:02.661125058,E4_Acc,2024-06-25 13:58:34.991440058,-24.0,-59.0,13.0
1904-01-01 00:19:02.692385071,E4_Acc,2024-06-25 13:58:35.022700071,-24.0,-59.0,13.0
1904-01-01 00:19:02.723635071,E4_Acc,2024-06-25 13:58:35.053950071,-24.0,-59.0,13.0
1904-01-01 00:19:02.754885071,E4_Acc,2024-06-25 13:58:35.085200071,-24.0,-59.0,13.0
1904-01-01 00:19:02.786135071,E4_Acc,2024-06-25 13:58:35.116450071,-24.0,-59.0,13.0
1904-01-01 00:19:02.817385071,E4_Acc,2024-06-25 13:58:35.147700071,-24.0,-59.0,12.0
1904-01-01 00:19:02.848635071,E4_Acc,2024-06-25 13:58:35.178950071,-24.0,-59.0,13.0
1904-01-01 00:19:02.879885071,E4_Acc,2024-06-25 13:58:35.210200071,-24.0,-59.0,12.0
1904-01-01 00:19:02.911145085,E4_Acc,2024-06-25 13:58:35.241460085,-24.0,-59.0,12.0
1904-01-01 00:19:02.942395085,E4_Acc,2024-06-25 13:58:35.272710085,-24.0,-59.0,13.0
1904-01-01 00:19:02.973645085,E4_Acc,2024-06-25 13:58:35.303960085,-23.0,-59.0,13.0
1904-01-01 00:19:03.004895085,E4_Acc,2024-06-25 13:58:35.335210085,-24.0,-59.0,13.0
1904-01-01 00:19:03.036145085,E4_Acc,2024-06-25 13:58:35.366460085,-24.0,-59.0,13.0
1904-01-01 00:19:03.067395085,E4_Acc,2024-06-25 13:58:35.397710085,-24.0,-59.0,13.0
1904-01-01 00:19:03.098645085,E4_Acc,2024-06-25 13:58:35.428960085,-24.0,-59.0,13.0
1904-01-01 00:19:03.129905098,E4_Acc,2024-06-25 13:58:35.460220098,-24.0,-59.0,13.0
1904-01-01 00:19:03.161155098,E4_Acc,2024-06-25 13:58:35.491470098,-24.0,-59.0,13.0
1904-01-01 00:19:03.192405097,E4_Acc,2024-06-25 13:58:35.522720097,-24.0,-58.0,13.0
1904-01-01 00:19:03.223655098,E4_Acc,2024-06-25 13:58:35.553970098,-24.0,-59.0,13.0
1904-01-01 00:19:03.254905098,E4_Acc,2024-06-25 13:58:35.585220098,-24.0,-59.0,13.0
1904-01-01 00:19:03.286155098,E4_Acc,2024-06-25 13:58:35.616470098,-24.0,-59.0,13.0
1904-01-01 00:19:03.317405098,E4_Acc,2024-06-25 13:58:35.647720098,-25.0,-59.0,13.0
1904-01-01 00:19:03.348665112,E4_Acc,2024-06-25 13:58:35.678980112,-24.0,-59.0,13.0
1904-01-01 00:19:03.379915112,E4_Acc,2024-06-25 13:58:35.710230112,-24.0,-59.0,13.0
1904-01-01 00:19:03.411165112,E4_Acc,2024-06-25 13:58:35.741480112,-24.0,-59.0,13.0
1904-01-01 00:19:03.442415112,E4_Acc,2024-06-25 13:58:35.772730112,-24.0,-58.0,13.0
1904-01-01 00:19:03.473665112,E4_Acc,2024-06-25 13:58:35.803980112,-24.0,-59.0,13.0
1904-01-01 00:19:03.504915112,E4_Acc,2024-06-25 13:58:35.835230112,-24.0,-59.0,13.0
1904-01-01 00:19:03.536165112,E4_Acc,2024-06-25 13:58:35.866480112,-24.0,-59.0,13.0
1904-01-01 00:19:03.567424887,E4_Acc,2024-06-25 13:58:35.897739887,-24.0,-59.0,13.0
1904-01-01 00:19:03.598674887,E4_Acc,2024-06-25 13:58:35.928989887,-24.0,-59.0,13.0
1904-01-01 00:19:03.629924887,E4_Acc,2024-06-25 13:58:35.960239887,-24.0,-59.0,13.0
1904-01-01 00:19:03.661174887,E4_Acc,2024-06-25 13:58:35.991489887,-24.0,-59.0,13.0
1904-01-01 00:19:03.692424887,E4_Acc,2024-06-25 13:58:36.022739887,-24.0,-59.0,13.0
1904-01-01 00:19:03.723674887,E4_Acc,2024-06-25 13:58:36.053989887,-24.0,-59.0,13.0
1904-01-01 00:19:03.754934901,E4_Acc,2024-06-25 13:58:36.085249901,-24.0,-59.0,13.0
1904-01-01 00:19:03.786184901,E4_Acc,2024-06-25 13:58:36.116499901,-24.0,-59.0,13.0
1904-01-01 00:19:03.817434901,E4_Acc,2024-06-25 13:58:36.147749901,-24.0,-58.0,13.0
1904-01-01 00:19:03.848684901,E4_Acc,2024-06-25 13:58:36.178999901,-24.0,-59.0,13.0
1904-01-01 00:19:03.879934901,E4_Acc,2024-06-25 13:58:36.210249901,-24.0,-59.0,13.0
1904-01-01 00:19:03.911184901,E4_Acc,2024-06-25 13:58:36.241499901,-24.0,-59.0,13.0
1904-01-01 00:19:03.942434901,E4_Acc,2024-06-25 13:58:36.272749901,-24.0,-59.0,13.0
1904-01-01 00:19:03.973694914,E4_Acc,2024-06-25 13:58:36.304009914,-24.0,-59.0,13.0
1904-01-01 00:19:04.004944914,E4_Acc,2024-06-25 13:58:36.335259914,-24.0,-59.0,13.0
1904-01-01 00:19:04.036194914,E4_Acc,2024-06-25 13:58:36.366509914,-24.0,-59.0,14.0
1904-01-01 00:19:04.067444914,E4_Acc,2024-06-25 13:58:36.397759914,-24.0,-59.0,14.0
1904-01-01 00:19:04.098694914,E4_Acc,2024-06-25 13:58:36.429009914,-25.0,-59.0,13.0
1904-01-01 00:19:04.129944914,E4_Acc,2024-06-25 13:58:36.460259914,-24.0,-59.0,13.0
1904-01-01 00:19:04.161194914,E4_Acc,2024-06-25 13:58:36.491509914,-24.0,-59.0,13.0
1904-01-01 00:19:04.192454928,E4_Acc,2024-06-25 13:58:36.522769928,-24.0,-59.0,13.0
1904-01-01 00:19:04.223704928,E4_Acc,2024-06-25 13:58:36.554019928,-24.0,-59.0,13.0
1904-01-01 00:19:04.254954928,E4_Acc,2024-06-25 13:58:36.585269928,-24.0,-59.0,13.0
1904-01-01 00:19:04.286204928,E4_Acc,2024-06-25 13:58:36.616519928,-24.0,-59.0,13.0
1904-01-01 00:19:04.317454928,E4_Acc,2024-06-25 13:58:36.647769928,-24.0,-59.0,13.0
1904-01-01 00:19:04.348704928,E4_Acc,2024-06-25 13:58:36.679019928,-24.0,-59.0,13.0
1904-01-01 00:19:04.379954928,E4_Acc,2024-06-25 13:58:36.710269928,-24.0,-59.0,13.0
1904-01-01 00:19:04.411214942,E4_Acc,2024-06-25 13:58:36.741529942,-24.0,-59.0,13.0
1904-01-01 00:19:04.442464942,E4_Acc,2024-06-25 13:58:36.772779942,-24.0,-59.0,13.0
1904-01-01 00:19:04.473714942,E4_Acc,2024-06-25 13:58:36.804029942,-24.0,-59.0,13.0
1904-01-01 00:19:04.504964942,E4_Acc,2024-06-25 13:58:36.835279942,-24.0,-59.0,13.0
1904-01-01 00:19:04.536214942,E4_Acc,2024-06-25 13:58:36.866529942,-24.0,-58.0,13.0
1904-01-01 00:19:04.567464942,E4_Acc,2024-06-25 13:58:36.897779942,-24.0,-58.0,13.0
1904-01-01 00:19:04.598714942,E4_Acc,2024-06-25 13:58:36.929029942,-24.0,-59.0,13.0
1904-01-01 00:19:04.629974955,E4_Acc,2024-06-25 13:58:36.960289955,-24.0,-59.0,13.0
1904-01-01 00:19:04.661224955,E4_Acc,2024-06-25 13:58:36.991539955,-24.0,-59.0,13.0
1904-01-01 00:19:04.692474955,E4_Acc,2024-06-25 13:58:37.022789955,-24.0,-59.0,13.0
1904-01-01 00:19:04.723724955,E4_Acc,2024-06-25 13:58:37.054039955,-24.0,-59.0,12.0
1904-01-01 00:19:04.754974955,E4_Acc,2024-06-25 13:58:37.085289955,-24.0,-59.0,13.0
1904-01-01 00:19:04.786224955,E4_Acc,2024-06-25 13:58:37.116539955,-24.0,-59.0,13.0
1904-01-01 00:19:04.817474955,E4_Acc,2024-06-25 13:58:37.147789955,-24.0,-59.0,13.0
1904-01-01 00:19:04.848734969,E4_Acc,2024-06-25 13:58:37.179049969,-24.0,-59.0,13.0
1904-01-01 00:19:04.879984969,E4_Acc,2024-06-25 13:58:37.210299969,-24.0,-59.0,13.0
1904-01-01 00:19:04.911234969,E4_Acc,2024-06-25 13:58:37.241549969,-24.0,-59.0,13.0
1904-01-01 00:19:04.942484969,E4_Acc,2024-06-25 13:58:37.272799969,-24.0,-59.0,12.0
1904-01-01 00:19:04.973734969,E4_Acc,2024-06-25 13:58:37.304049969,-24.0,-59.0,13.0
1904-01-01 00:19:05.004984969,E4_Acc,2024-06-25 13:58:37.335299969,-24.0,-59.0,13.0
1904-01-01 00:19:05.036234969,E4_Acc,2024-06-25 13:58:37.366549969,-24.0,-59.0,13.0
1904-01-01 00:19:05.067494982,E4_Acc,2024-06-25 13:58:37.397809982,-24.0,-59.0,13.0
1904-01-01 00:19:05.098744982,E4_Acc,2024-06-25 13:58:37.429059982,-24.0,-59.0,12.0
1904-01-01 00:19:05.129994982,E4_Acc,2024-06-25 13:58:37.460309982,-24.0,-59.0,12.0
1904-01-01 00:19:05.161244982,E4_Acc,2024-06-25 13:58:37.491559982,-24.0,-59.0,12.0
1904-01-01 00:19:05.192494981,E4_Acc,2024-06-25 13:58:37.522809981,-24.0,-59.0,13.0
1904-01-01 00:19:05.223744982,E4_Acc,2024-06-25 13:58:37.554059982,-24.0,-59.0,12.0
1904-01-01 00:19:05.254994982,E4_Acc,2024-06-25 13:58:37.585309982,-24.0,-58.0,12.0
1904-01-01 00:19:05.286254996,E4_Acc,2024-06-25 13:58:37.616569996,-24.0,-58.0,12.0
1904-01-01 00:19:05.317504996,E4_Acc,2024-06-25 13:58:37.647819996,-24.0,-59.0,12.0
1904-01-01 00:19:05.348754996,E4_Acc,2024-06-25 13:58:37.679069996,-24.0,-59.0,12.0
1904-01-01 00:19:05.380004996,E4_Acc,2024-06-25 13:58:37.710319996,-25.0,-59.0,13.0
1904-01-01 00:19:05.411254996,E4_Acc,2024-06-25 13:58:37.741569996,-25.0,-59.0,13.0
1904-01-01 00:19:05.442504996,E4_Acc,2024-06-25 13:58:37.772819996,-25.0,-59.0,13.0
1904-01-01 00:19:05.473754996,E4_Acc,2024-06-25 13:58:37.804069996,-24.0,-59.0,13.0
1904-01-01 00:19:05.505015009,E4_Acc,2024-06-25 13:58:37.835330009,-24.0,-59.0,12.0
1904-01-01 00:19:05.536265009,E4_Acc,2024-06-25 13:58:37.866580009,-24.0,-59.0,13.0
1904-01-01 00:19:05.567515009,E4_Acc,2024-06-25 13:58:37.897830009,-24.0,-59.0,13.0
1904-01-01 00:19:05.598765009,E4_Acc,2024-06-25 13:58:37.929080009,-24.0,-59.0,13.0
1904-01-01 00:19:05.630015009,E4_Acc,2024-06-25 13:58:37.960330009,-24.0,-59.0,13.0
1904-01-01 00:19:05.661265009,E4_Acc,2024-06-25 13:58:37.991580009,-24.0,-59.0,13.0
1904-01-01 00:19:05.692515009,E4_Acc,2024-06-25 13:58:38.022830009,-24.0,-59.0,13.0
1904-01-01 00:19:05.723775023,E4_Acc,2024-06-25 13:58:38.054090023,-24.0,-59.0,13.0
1904-01-01 00:19:05.755025023,E4_Acc,2024-06-25 13:58:38.085340023,-24.0,-59.0,12.0
1904-01-01 00:19:05.786275023,E4_Acc,2024-06-25 13:58:38.116590023,-24.0,-59.0,13.0
1904-01-01 00:19:05.817525023,E4_Acc,2024-06-25 13:58:38.147840023,-24.0,-59.0,12.0
1904-01-01 00:19:05.848775023,E4_Acc,2024-06-25 13:58:38.179090023,-24.0,-59.0,12.0
1904-01-01 00:19:05.880025023,E4_Acc,2024-06-25 13:58:38.210340023,-24.0,-59.0,12.0
1904-01-01 00:19:05.911275023,E4_Acc,2024-06-25 13:58:38.241590023,-24.0,-59.0,12.0
1904-01-01 00:19:05.942535037,E4_Acc,2024-06-25 13:58:38.272850037,-25.0,-59.0,12.0
1904-01-01 00:19:05.973785037,E4_Acc,2024-06-25 13:58:38.304100037,-24.0,-58.0,12.0
1904-01-01 00:19:06.005035037,E4_Acc,2024-06-25 13:58:38.335350037,-24.0,-58.0,12.0
1904-01-01 00:19:06.036285037,E4_Acc,2024-06-25 13:58:38.366600037,-24.0,-59.0,12.0
1904-01-01 00:19:06.067535037,E4_Acc,2024-06-25 13:58:38.397850037,-24.0,-59.0,13.0
1904-01-01 00:19:06.098785037,E4_Acc,2024-06-25 13:58:38.429100037,-24.0,-59.0,13.0
1904-01-01 00:19:06.130045050,E4_Acc,2024-06-25 13:58:38.460360050,-24.0,-59.0,13.0
1904-01-01 00:19:06.161295050,E4_Acc,2024-06-25 13:58:38.491610050,-24.0,-59.0,13.0
1904-01-01 00:19:06.192545050,E4_Acc,2024-06-25 13:58:38.522860050,-24.0,-59.0,13.0
1904-01-01 00:19:06.223795050,E4_Acc,2024-06-25 13:58:38.554110050,-24.0,-59.0,13.0
1904-01-01 00:19:06.255045050,E4_Acc,2024-06-25 13:58:38.585360050,-24.0,-59.0,13.0
1904-01-01 00:19:06.286295050,E4_Acc,2024-06-25 13:58:38.616610050,-24.0,-59.0,13.0
1904-01-01 00:19:06.317545050,E4_Acc,2024-06-25 13:58:38.647860050,-24.0,-59.0,13.0
1904-01-01 00:19:06.348805064,E4_Acc,2024-06-25 13:58:38.679120064,-24.0,-59.0,13.0
1904-01-01 00:19:06.380055064,E4_Acc,2024-06-25 13:58:38.710370064,-24.0,-59.0,13.0
1904-01-01 00:19:06.411305064,E4_Acc,2024-06-25 13:58:38.741620064,-24.0,-59.0,13.0
1904-01-01 00:19:06.442555064,E4_Acc,2024-06-25 13:58:38.772870064,-24.0,-59.0,13.0
1904-01-01 00:19:06.473805064,E4_Acc,2024-06-25 13:58:38.804120064,-24.0,-59.0,13.0
1904-01-01 00:19:06.505055064,E4_Acc,2024-06-25 13:58:38.835370064,-24.0,-59.0,13.0
1904-01-01 00:19:06.536305064,E4_Acc,2024-06-25 13:58:38.866620064,-24.0,-59.0,13.0
1904-01-01 00:19:06.567565077,E4_Acc,2024-06-25 13:58:38.897880077,-24.0,-59.0,13.0
1904-01-01 00:19:06.598815077,E4_Acc,2024-06-25 13:58:38.929130077,-24.0,-59.0,13.0
1904-01-01 00:19:06.630065077,E4_Acc,2024-06-25 13:58:38.960380077,-24.0,-59.0,13.0
1904-01-01 00:19:06.661315077,E4_Acc,2024-06-25 13:58:38.991630077,-24.0,-59.0,13.0
1904-01-01 00:19:06.692565077,E4_Acc,2024-06-25 13:58:39.022880077,-24.0,-59.0,13.0
1904-01-01 00:19:06.723815077,E4_Acc,2024-06-25 13:58:39.054130077,-24.0,-59.0,13.0
1904-01-01 00:19:06.755065077,E4_Acc,2024-06-25 13:58:39.085380077,-24.0,-59.0,13.0
1904-01-01 00:19:06.786325091,E4_Acc,2024-06-25 13:58:39.116640091,-24.0,-59.0,13.0
1904-01-01 00:19:06.817575091,E4_Acc,2024-06-25 13:58:39.147890091,-24.0,-59.0,13.0
1904-01-01 00:19:06.848825091,E4_Acc,2024-06-25 13:58:39.179140091,-24.0,-59.0,13.0
1904-01-01 00:19:06.880075091,E4_Acc,2024-06-25 13:58:39.210390091,-24.0,-59.0,13.0
1904-01-01 00:19:06.911325091,E4_Acc,2024-06-25 13:58:39.241640091,-24.0,-59.0,13.0
1904-01-01 00:19:06.942575091,E4_Acc,2024-06-25 13:58:39.272890091,-24.0,-59.0,13.0
1904-01-01 00:19:06.973825091,E4_Acc,2024-06-25 13:58:39.304140091,-24.0,-59.0,12.0
1904-01-01 00:19:07.005085105,E4_Acc,2024-06-25 13:58:39.335400105,-24.0,-59.0,13.0
1904-01-01 00:19:07.036335105,E4_Acc,2024-06-25 13:58:39.366650105,-24.0,-59.0,13.0
1904-01-01 00:19:07.067585105,E4_Acc,2024-06-25 13:58:39.397900105,-24.0,-59.0,13.0
1904-01-01 00:19:07.098835105,E4_Acc,2024-06-25 13:58:39.429150105,-24.0,-59.0,13.0
1904-01-01 00:19:07.130085105,E4_Acc,2024-06-25 13:58:39.460400105,-24.0,-59.0,13.0
1904-01-01 00:19:07.161335105,E4_Acc,2024-06-25 13:58:39.491650105,-24.0,-59.0,13.0
1904-01-01 00:19:07.192585104,E4_Acc,2024-06-25 13:58:39.522900104,-24.0,-59.0,13.0
1904-01-01 00:19:07.223845118,E4_Acc,2024-06-25 13:58:39.554160118,-24.0,-59.0,13.0
1904-01-01 00:19:07.255095118,E4_Acc,2024-06-25 13:58:39.585410118,-24.0,-59.0,13.0
1904-01-01 00:19:07.286345118,E4_Acc,2024-06-25 13:58:39.616660118,-24.0,-59.0,13.0
1904-01-01 00:19:07.317595118,E4_Acc,2024-06-25 13:58:39.647910118,-24.0,-59.0,13.0
1904-01-01 00:19:07.348845118,E4_Acc,2024-06-25 13:58:39.679160118,-24.0,-59.0,13.0
1904-01-01 00:19:07.380095118,E4_Acc,2024-06-25 13:58:39.710410118,-24.0,-59.0,13.0
1904-01-01 00:19:07.411345118,E4_Acc,2024-06-25 13:58:39.741660118,-24.0,-59.0,13.0
1904-01-01 00:19:07.442604893,E4_Acc,2024-06-25 13:58:39.772919893,-24.0,-59.0,13.0
1904-01-01 00:19:07.473854893,E4_Acc,2024-06-25 13:58:39.804169893,-24.0,-59.0,13.0
1904-01-01 00:19:07.505104893,E4_Acc,2024-06-25 13:58:39.835419893,-24.0,-59.0,13.0
1904-01-01 00:19:07.536354893,E4_Acc,2024-06-25 13:58:39.866669893,-24.0,-59.0,13.0
1904-01-01 00:19:07.567604893,E4_Acc,2024-06-25 13:58:39.897919893,-24.0,-59.0,13.0
1904-01-01 00:19:07.598854893,E4_Acc,2024-06-25 13:58:39.929169893,-24.0,-59.0,13.0
1904-01-01 00:19:07.630104893,E4_Acc,2024-06-25 13:58:39.960419893,-24.0,-59.0,12.0
1904-01-01 00:19:07.661364907,E4_Acc,2024-06-25 13:58:39.991679907,-24.0,-59.0,13.0
1904-01-01 00:19:07.692614907,E4_Acc,2024-06-25 13:58:40.022929907,-24.0,-59.0,13.0
1904-01-01 00:19:07.723864907,E4_Acc,2024-06-25 13:58:40.054179907,-24.0,-59.0,13.0
1904-01-01 00:19:07.755114907,E4_Acc,2024-06-25 13:58:40.085429907,-24.0,-59.0,13.0
1904-01-01 00:19:07.786364907,E4_Acc,2024-06-25 13:58:40.116679907,-24.0,-59.0,13.0
1904-01-01 00:19:07.817614907,E4_Acc,2024-06-25 13:58:40.147929907,-24.0,-59.0,13.0
1904-01-01 00:19:07.848864907,E4_Acc,2024-06-25 13:58:40.179179907,-24.0,-59.0,13.0
1904-01-01 00:19:07.880124920,E4_Acc,2024-06-25 13:58:40.210439920,-24.0,-59.0,13.0
1904-01-01 00:19:07.911374920,E4_Acc,2024-06-25 13:58:40.241689920,-24.0,-59.0,13.0
1904-01-01 00:19:07.942624920,E4_Acc,2024-06-25 13:58:40.272939920,-24.0,-59.0,13.0
1904-01-01 00:19:07.973874920,E4_Acc,2024-06-25 13:58:40.304189920,-24.0,-59.0,13.0
1904-01-01 00:19:08.005124920,E4_Acc,2024-06-25 13:58:40.335439920,-24.0,-59.0,13.0
1904-01-01 00:19:08.036374920,E4_Acc,2024-06-25 13:58:40.366689920,-24.0,-59.0,13.0
1904-01-01 00:19:08.067624920,E4_Acc,2024-06-25 13:58:40.397939920,-24.0,-59.0,13.0
1904-01-01 00:19:08.098884934,E4_Acc,2024-06-25 13:58:40.429199934,-24.0,-59.0,13.0
1904-01-01 00:19:08.130134934,E4_Acc,2024-06-25 13:58:40.460449934,-24.0,-59.0,13.0
1904-01-01 00:19:08.161384934,E4_Acc,2024-06-25 13:58:40.491699934,-24.0,-59.0,13.0
1904-01-01 00:19:08.192634934,E4_Acc,2024-06-25 13:58:40.522949934,-24.0,-59.0,13.0
1904-01-01 00:19:08.223884934,E4_Acc,2024-06-25 13:58:40.554199934,-24.0,-59.0,13.0
1904-01-01 00:19:08.255134934,E4_Acc,2024-06-25 13:58:40.585449934,-24.0,-59.0,13.0
1904-01-01 00:19:08.286384934,E4_Acc,2024-06-25 13:58:40.616699934,-24.0,-59.0,13.0
1904-01-01 00:19:08.317644948,E4_Acc,2024-06-25 13:58:40.647959948,-24.0,-59.0,13.0
1904-01-01 00:19:08.348894948,E4_Acc,2024-06-25 13:58:40.679209948,-24.0,-59.0,13.0
1904-01-01 00:19:08.380144948,E4_Acc,2024-06-25 13:58:40.710459948,-24.0,-59.0,13.0
1904-01-01 00:19:08.411394948,E4_Acc,2024-06-25 13:58:40.741709948,-24.0,-59.0,13.0
1904-01-01 00:19:08.442644948,E4_Acc,2024-06-25 13:58:40.772959948,-24.0,-59.0,12.0
1904-01-01 00:19:08.473894948,E4_Acc,2024-06-25 13:58:40.804209948,-24.0,-59.0,13.0
1904-01-01 00:19:08.505144948,E4_Acc,2024-06-25 13:58:40.835459948,-24.0,-59.0,12.0
1904-01-01 00:19:08.536404961,E4_Acc,2024-06-25 13:58:40.866719961,-24.0,-59.0,13.0
1904-01-01 00:19:08.567654961,E4_Acc,2024-06-25 13:58:40.897969961,-24.0,-59.0,13.0
1904-01-01 00:19:08.598904961,E4_Acc,2024-06-25 13:58:40.929219961,-24.0,-59.0,13.0
1904-01-01 00:19:08.630154961,E4_Acc,2024-06-25 13:58:40.960469961,-24.0,-59.0,13.0
1904-01-01 00:19:08.661404961,E4_Acc,2024-06-25 13:58:40.991719961,-24.0,-59.0,13.0
1904-01-01 00:19:08.692654961,E4_Acc,2024-06-25 13:58:41.022969961,-24.0,-59.0,13.0
1904-01-01 00:19:08.723914975,E4_Acc,2024-06-25 13:58:41.054229975,-24.0,-59.0,13.0
1904-01-01 00:19:08.755164975,E4_Acc,2024-06-25 13:58:41.085479975,-24.0,-59.0,13.0
1904-01-01 00:19:08.786414975,E4_Acc,2024-06-25 13:58:41.116729975,-24.0,-58.0,13.0
1904-01-01 00:19:08.817664975,E4_Acc,2024-06-25 13:58:41.147979975,-24.0,-59.0,13.0
1904-01-01 00:19:08.848914975,E4_Acc,2024-06-25 13:58:41.179229975,-24.0,-59.0,13.0
1904-01-01 00:19:08.880164975,E4_Acc,2024-06-25 13:58:41.210479975,-24.0,-59.0,14.0
1904-01-01 00:19:08.911414975,E4_Acc,2024-06-25 13:58:41.241729975,-24.0,-59.0,13.0
1904-01-01 00:19:08.942674988,E4_Acc,2024-06-25 13:58:41.272989988,-24.0,-59.0,13.0
1904-01-01 00:19:08.973924988,E4_Acc,2024-06-25 13:58:41.304239988,-24.0,-59.0,13.0
1904-01-01 00:19:09.005174988,E4_Acc,2024-06-25 13:58:41.335489988,-24.0,-59.0,13.0
1904-01-01 00:19:09.036424988,E4_Acc,2024-06-25 13:58:41.366739988,-24.0,-59.0,14.0
1904-01-01 00:19:09.067674988,E4_Acc,2024-06-25 13:58:41.397989988,-24.0,-59.0,14.0
1904-01-01 00:19:09.098924988,E4_Acc,2024-06-25 13:58:41.429239988,-24.0,-58.0,13.0
1904-01-01 00:19:09.130174988,E4_Acc,2024-06-25 13:58:41.460489988,-25.0,-59.0,14.0
1904-01-01 00:19:09.161435002,E4_Acc,2024-06-25 13:58:41.491750002,-24.0,-58.0,14.0
1904-01-01 00:19:09.192685001,E4_Acc,2024-06-25 13:58:41.523000001,-25.0,-59.0,14.0
1904-01-01 00:19:09.223935002,E4_Acc,2024-06-25 13:58:41.554250002,-25.0,-59.0,14.0
1904-01-01 00:19:09.255185002,E4_Acc,2024-06-25 13:58:41.585500002,-24.0,-58.0,14.0
1904-01-01 00:19:09.286435002,E4_Acc,2024-06-25 13:58:41.616750002,-24.0,-58.0,14.0
1904-01-01 00:19:09.317685002,E4_Acc,2024-06-25 13:58:41.648000002,-24.0,-58.0,14.0
1904-01-01 00:19:09.348935002,E4_Acc,2024-06-25 13:58:41.679250002,-24.0,-58.0,14.0
1904-01-01 00:19:09.380195015,E4_Acc,2024-06-25 13:58:41.710510015,-24.0,-58.0,14.0
1904-01-01 00:19:09.411445015,E4_Acc,2024-06-25 13:58:41.741760015,-24.0,-59.0,14.0
1904-01-01 00:19:09.442695015,E4_Acc,2024-06-25 13:58:41.773010015,-24.0,-59.0,14.0
1904-01-01 00:19:09.473945015,E4_Acc,2024-06-25 13:58:41.804260015,-25.0,-59.0,14.0
1904-01-01 00:19:09.505195015,E4_Acc,2024-06-25 13:58:41.835510015,-25.0,-58.0,14.0
1904-01-01 00:19:09.536445015,E4_Acc,2024-06-25 13:58:41.866760015,-25.0,-58.0,14.0
1904-01-01 00:19:09.567695015,E4_Acc,2024-06-25 13:58:41.898010015,-25.0,-58.0,14.0
1904-01-01 00:19:09.598955029,E4_Acc,2024-06-25 13:58:41.929270029,-25.0,-58.0,14.0
1904-01-01 00:19:09.630205029,E4_Acc,2024-06-25 13:58:41.960520029,-25.0,-58.0,14.0
1904-01-01 00:19:09.661455029,E4_Acc,2024-06-25 13:58:41.991770029,-25.0,-59.0,14.0
1904-01-01 00:19:09.692705029,E4_Acc,2024-06-25 13:58:42.023020029,-25.0,-59.0,14.0
1904-01-01 00:19:09.723955029,E4_Acc,2024-06-25 13:58:42.054270029,-25.0,-59.0,14.0
1904-01-01 00:19:09.755205029,E4_Acc,2024-06-25 13:58:42.085520029,-24.0,-59.0,14.0
1904-01-01 00:19:09.786455029,E4_Acc,2024-06-25 13:58:42.116770029,-24.0,-59.0,14.0
1904-01-01 00:19:09.817715043,E4_Acc,2024-06-25 13:58:42.148030043,-24.0,-58.0,14.0
1904-01-01 00:19:09.848965043,E4_Acc,2024-06-25 13:58:42.179280043,-23.0,-58.0,14.0
1904-01-01 00:19:09.880215043,E4_Acc,2024-06-25 13:58:42.210530043,-24.0,-58.0,14.0
1904-01-01 00:19:09.911465043,E4_Acc,2024-06-25 13:58:42.241780043,-24.0,-59.0,15.0
1904-01-01 00:19:09.942715043,E4_Acc,2024-06-25 13:58:42.273030043,-24.0,-59.0,15.0
1904-01-01 00:19:09.973965043,E4_Acc,2024-06-25 13:58:42.304280043,-25.0,-60.0,15.0
1904-01-01 00:19:10.005215043,E4_Acc,2024-06-25 13:58:42.335530043,-23.0,-59.0,15.0
1904-01-01 00:19:10.036475056,E4_Acc,2024-06-25 13:58:42.366790056,-24.0,-59.0,15.0
1904-01-01 00:19:10.067725056,E4_Acc,2024-06-25 13:58:42.398040056,-24.0,-58.0,14.0
1904-01-01 00:19:10.098975056,E4_Acc,2024-06-25 13:58:42.429290056,-24.0,-57.0,14.0
1904-01-01 00:19:10.130225056,E4_Acc,2024-06-25 13:58:42.460540056,-25.0,-58.0,14.0
1904-01-01 00:19:10.161475056,E4_Acc,2024-06-25 13:58:42.491790056,-25.0,-59.0,14.0
1904-01-01 00:19:10.192725056,E4_Acc,2024-06-25 13:58:42.523040056,-26.0,-58.0,14.0
1904-01-01 00:19:10.223975056,E4_Acc,2024-06-25 13:58:42.554290056,-26.0,-59.0,13.0
1904-01-01 00:19:10.255235070,E4_Acc,2024-06-25 13:58:42.585550070,-25.0,-58.0,14.0
1904-01-01 00:19:10.286485070,E4_Acc,2024-06-25 13:58:42.616800070,-25.0,-58.0,13.0
1904-01-01 00:19:10.317735070,E4_Acc,2024-06-25 13:58:42.648050070,-25.0,-58.0,14.0
1904-01-01 00:19:10.348985070,E4_Acc,2024-06-25 13:58:42.679300070,-25.0,-58.0,14.0
1904-01-01 00:19:10.380235070,E4_Acc,2024-06-25 13:58:42.710550070,-25.0,-58.0,14.0
1904-01-01 00:19:10.411485070,E4_Acc,2024-06-25 13:58:42.741800070,-25.0,-58.0,14.0
1904-01-01 00:19:10.442735070,E4_Acc,2024-06-25 13:58:42.773050070,-25.0,-58.0,14.0
1904-01-01 00:19:10.473995083,E4_Acc,2024-06-25 13:58:42.804310083,-24.0,-58.0,14.0
1904-01-01 00:19:10.505245083,E4_Acc,2024-06-25 13:58:42.835560083,-24.0,-59.0,14.0
1904-01-01 00:19:10.536495083,E4_Acc,2024-06-25 13:58:42.866810083,-24.0,-59.0,14.0
1904-01-01 00:19:10.567745083,E4_Acc,2024-06-25 13:58:42.898060083,-24.0,-58.0,14.0
1904-01-01 00:19:10.598995083,E4_Acc,2024-06-25 13:58:42.929310083,-24.0,-58.0,14.0
1904-01-01 00:19:10.630245083,E4_Acc,2024-06-25 13:58:42.960560083,-23.0,-58.0,14.0
1904-01-01 00:19:10.661495083,E4_Acc,2024-06-25 13:58:42.991810083,-23.0,-58.0,13.0
1904-01-01 00:19:10.692755097,E4_Acc,2024-06-25 13:58:43.023070097,-24.0,-59.0,14.0
1904-01-01 00:19:10.724005097,E4_Acc,2024-06-25 13:58:43.054320097,-24.0,-59.0,14.0
1904-01-01 00:19:10.755255097,E4_Acc,2024-06-25 13:58:43.085570097,-24.0,-59.0,13.0
1904-01-01 00:19:10.786505097,E4_Acc,2024-06-25 13:58:43.116820097,-24.0,-59.0,13.0
1904-01-01 00:19:10.817755097,E4_Acc,2024-06-25 13:58:43.148070097,-24.0,-58.0,14.0
1904-01-01 00:19:10.849005097,E4_Acc,2024-06-25 13:58:43.179320097,-24.0,-58.0,14.0
1904-01-01 00:19:10.880255097,E4_Acc,2024-06-25 13:58:43.210570097,-24.0,-59.0,14.0
1904-01-01 00:19:10.911515111,E4_Acc,2024-06-25 13:58:43.241830111,-24.0,-59.0,14.0
1904-01-01 00:19:10.942765111,E4_Acc,2024-06-25 13:58:43.273080111,-24.0,-59.0,14.0
1904-01-01 00:19:10.974015111,E4_Acc,2024-06-25 13:58:43.304330111,-24.0,-59.0,14.0
1904-01-01 00:19:11.005265111,E4_Acc,2024-06-25 13:58:43.335580111,-24.0,-59.0,14.0
1904-01-01 00:19:11.036515111,E4_Acc,2024-06-25 13:58:43.366830111,-24.0,-59.0,14.0
1904-01-01 00:19:11.067765111,E4_Acc,2024-06-25 13:58:43.398080111,-24.0,-59.0,14.0
1904-01-01 00:19:11.099024886,E4_Acc,2024-06-25 13:58:43.429339886,-24.0,-59.0,14.0
1904-01-01 00:19:11.130274886,E4_Acc,2024-06-25 13:58:43.460589886,-24.0,-59.0,14.0
1904-01-01 00:19:11.161524886,E4_Acc,2024-06-25 13:58:43.491839886,-23.0,-59.0,13.0
1904-01-01 00:19:11.192774885,E4_Acc,2024-06-25 13:58:43.523089885,-23.0,-59.0,13.0
1904-01-01 00:19:11.224024886,E4_Acc,2024-06-25 13:58:43.554339886,-24.0,-59.0,14.0
1904-01-01 00:19:11.255274886,E4_Acc,2024-06-25 13:58:43.585589886,-24.0,-59.0,13.0
1904-01-01 00:19:11.286524886,E4_Acc,2024-06-25 13:58:43.616839886,-24.0,-59.0,13.0
1904-01-01 00:19:11.317784899,E4_Acc,2024-06-25 13:58:43.648099899,-24.0,-59.0,13.0
1904-01-01 00:19:11.349034899,E4_Acc,2024-06-25 13:58:43.679349899,-24.0,-59.0,13.0
1904-01-01 00:19:11.380284899,E4_Acc,2024-06-25 13:58:43.710599899,-25.0,-59.0,13.0
1904-01-01 00:19:11.411534899,E4_Acc,2024-06-25 13:58:43.741849899,-24.0,-58.0,13.0
1904-01-01 00:19:11.442784899,E4_Acc,2024-06-25 13:58:43.773099899,-24.0,-58.0,13.0
1904-01-01 00:19:11.474034899,E4_Acc,2024-06-25 13:58:43.804349899,-24.0,-58.0,13.0
1904-01-01 00:19:11.505284899,E4_Acc,2024-06-25 13:58:43.835599899,-25.0,-59.0,13.0
1904-01-01 00:19:11.536544913,E4_Acc,2024-06-25 13:58:43.866859913,-25.0,-59.0,13.0
1904-01-01 00:19:11.567794913,E4_Acc,2024-06-25 13:58:43.898109913,-25.0,-59.0,14.0
1904-01-01 00:19:11.599044913,E4_Acc,2024-06-25 13:58:43.929359913,-24.0,-58.0,14.0
1904-01-01 00:19:11.630294913,E4_Acc,2024-06-25 13:58:43.960609913,-24.0,-58.0,14.0
1904-01-01 00:19:11.661544913,E4_Acc,2024-06-25 13:58:43.991859913,-24.0,-58.0,14.0
1904-01-01 00:19:11.692794913,E4_Acc,2024-06-25 13:58:44.023109913,-24.0,-58.0,14.0
1904-01-01 00:19:11.724044913,E4_Acc,2024-06-25 13:58:44.054359913,-25.0,-59.0,14.0
1904-01-01 00:19:11.755304926,E4_Acc,2024-06-25 13:58:44.085619926,-25.0,-59.0,13.0
1904-01-01 00:19:11.786554926,E4_Acc,2024-06-25 13:58:44.116869926,-24.0,-59.0,14.0
1904-01-01 00:19:11.817804926,E4_Acc,2024-06-25 13:58:44.148119926,-25.0,-59.0,13.0
1904-01-01 00:19:11.849054926,E4_Acc,2024-06-25 13:58:44.179369926,-25.0,-59.0,13.0
1904-01-01 00:19:11.880304926,E4_Acc,2024-06-25 13:58:44.210619926,-24.0,-59.0,13.0
1904-01-01 00:19:11.911554926,E4_Acc,2024-06-25 13:58:44.241869926,-25.0,-59.0,13.0
1904-01-01 00:19:11.942804926,E4_Acc,2024-06-25 13:58:44.273119926,-24.0,-58.0,13.0
1904-01-01 00:19:11.974064940,E4_Acc,2024-06-25 13:58:44.304379940,-24.0,-58.0,12.0
1904-01-01 00:19:12.005314940,E4_Acc,2024-06-25 13:58:44.335629940,-24.0,-58.0,12.0
1904-01-01 00:19:12.036564940,E4_Acc,2024-06-25 13:58:44.366879940,-24.0,-59.0,12.0
1904-01-01 00:19:12.067814940,E4_Acc,2024-06-25 13:58:44.398129940,-25.0,-59.0,13.0
1904-01-01 00:19:12.099064940,E4_Acc,2024-06-25 13:58:44.429379940,-25.0,-59.0,13.0
1904-01-01 00:19:12.130314940,E4_Acc,2024-06-25 13:58:44.460629940,-24.0,-59.0,13.0
1904-01-01 00:19:12.161564940,E4_Acc,2024-06-25 13:58:44.491879940,-24.0,-59.0,13.0
1904-01-01 00:19:12.192824954,E4_Acc,2024-06-25 13:58:44.523139954,-24.0,-59.0,13.0
1904-01-01 00:19:12.224074954,E4_Acc,2024-06-25 13:58:44.554389954,-24.0,-59.0,13.0
1904-01-01 00:19:12.255324954,E4_Acc,2024-06-25 13:58:44.585639954,-24.0,-59.0,13.0
1904-01-01 00:19:12.286574954,E4_Acc,2024-06-25 13:58:44.616889954,-24.0,-59.0,13.0
1904-01-01 00:19:12.317824954,E4_Acc,2024-06-25 13:58:44.648139954,-24.0,-59.0,13.0
1904-01-01 00:19:12.349074954,E4_Acc,2024-06-25 13:58:44.679389954,-24.0,-59.0,13.0
1904-01-01 00:19:12.380324954,E4_Acc,2024-06-25 13:58:44.710639954,-24.0,-59.0,13.0
1904-01-01 00:19:12.411584967,E4_Acc,2024-06-25 13:58:44.741899967,-24.0,-59.0,12.0
1904-01-01 00:19:12.442834967,E4_Acc,2024-06-25 13:58:44.773149967,-24.0,-59.0,12.0
1904-01-01 00:19:12.474084967,E4_Acc,2024-06-25 13:58:44.804399967,-24.0,-59.0,12.0
1904-01-01 00:19:12.505334967,E4_Acc,2024-06-25 13:58:44.835649967,-24.0,-59.0,12.0
1904-01-01 00:19:12.536584967,E4_Acc,2024-06-25 13:58:44.866899967,-24.0,-59.0,12.0
1904-01-01 00:19:12.567834967,E4_Acc,2024-06-25 13:58:44.898149967,-24.0,-59.0,12.0
1904-01-01 00:19:12.599084967,E4_Acc,2024-06-25 13:58:44.929399967,-24.0,-59.0,12.0
1904-01-01 00:19:12.630344981,E4_Acc,2024-06-25 13:58:44.960659981,-24.0,-59.0,12.0
1904-01-01 00:19:12.661594981,E4_Acc,2024-06-25 13:58:44.991909981,-24.0,-59.0,12.0
1904-01-01 00:19:12.692844981,E4_Acc,2024-06-25 13:58:45.023159981,-24.0,-59.0,13.0
1904-01-01 00:19:12.724094981,E4_Acc,2024-06-25 13:58:45.054409981,-24.0,-59.0,13.0
1904-01-01 00:19:12.755344981,E4_Acc,2024-06-25 13:58:45.085659981,-24.0,-59.0,13.0
1904-01-01 00:19:12.786594981,E4_Acc,2024-06-25 13:58:45.116909981,-24.0,-59.0,12.0
1904-01-01 00:19:12.817844981,E4_Acc,2024-06-25 13:58:45.148159981,-24.0,-59.0,12.0
1904-01-01 00:19:12.849104994,E4_Acc,2024-06-25 13:58:45.179419994,-24.0,-59.0,12.0
1904-01-01 00:19:12.880354994,E4_Acc,2024-06-25 13:58:45.210669994,-24.0,-59.0,12.0
1904-01-01 00:19:12.911604994,E4_Acc,2024-06-25 13:58:45.241919994,-24.0,-60.0,12.0
1904-01-01 00:19:12.942854994,E4_Acc,2024-06-25 13:58:45.273169994,-24.0,-60.0,12.0
1904-01-01 00:19:12.974104994,E4_Acc,2024-06-25 13:58:45.304419994,-24.0,-59.0,12.0
1904-01-01 00:19:13.005354994,E4_Acc,2024-06-25 13:58:45.335669994,-23.0,-59.0,12.0
1904-01-01 00:19:13.036604994,E4_Acc,2024-06-25 13:58:45.366919994,-23.0,-59.0,12.0
1904-01-01 00:19:13.067865008,E4_Acc,2024-06-25 13:58:45.398180008,-24.0,-59.0,12.0
1904-01-01 00:19:13.099115008,E4_Acc,2024-06-25 13:58:45.429430008,-24.0,-59.0,12.0
1904-01-01 00:19:13.130365008,E4_Acc,2024-06-25 13:58:45.460680008,-24.0,-59.0,12.0
1904-01-01 00:19:13.161615008,E4_Acc,2024-06-25 13:58:45.491930008,-24.0,-59.0,12.0
1904-01-01 00:19:13.192865008,E4_Acc,2024-06-25 13:58:45.523180008,-23.0,-59.0,12.0
1904-01-01 00:19:13.224115008,E4_Acc,2024-06-25 13:58:45.554430008,-24.0,-59.0,12.0
1904-01-01 00:19:13.255375022,E4_Acc,2024-06-25 13:58:45.585690022,-24.0,-59.0,13.0
1904-01-01 00:19:13.286625022,E4_Acc,2024-06-25 13:58:45.616940022,-24.0,-59.0,13.0
1904-01-01 00:19:13.317875022,E4_Acc,2024-06-25 13:58:45.648190022,-24.0,-59.0,13.0
1904-01-01 00:19:13.349125022,E4_Acc,2024-06-25 13:58:45.679440022,-24.0,-59.0,13.0
1904-01-01 00:19:13.380375022,E4_Acc,2024-06-25 13:58:45.710690022,-24.0,-59.0,13.0
1904-01-01 00:19:13.411625022,E4_Acc,2024-06-25 13:58:45.741940022,-24.0,-59.0,13.0
1904-01-01 00:19:13.442875022,E4_Acc,2024-06-25 13:58:45.773190022,-24.0,-59.0,13.0
1904-01-01 00:19:13.474135035,E4_Acc,2024-06-25 13:58:45.804450035,-24.0,-59.0,13.0
1904-01-01 00:19:13.505385035,E4_Acc,2024-06-25 13:58:45.835700035,-24.0,-59.0,13.0
1904-01-01 00:19:13.536635035,E4_Acc,2024-06-25 13:58:45.866950035,-24.0,-59.0,13.0
1904-01-01 00:19:13.567885035,E4_Acc,2024-06-25 13:58:45.898200035,-24.0,-59.0,13.0
1904-01-01 00:19:13.599135035,E4_Acc,2024-06-25 13:58:45.929450035,-24.0,-59.0,12.0
1904-01-01 00:19:13.630385035,E4_Acc,2024-06-25 13:58:45.960700035,-24.0,-60.0,13.0
1904-01-01 00:19:13.661635035,E4_Acc,2024-06-25 13:58:45.991950035,-24.0,-59.0,13.0
1904-01-01 00:19:13.692895049,E4_Acc,2024-06-25 13:58:46.023210049,-24.0,-58.0,12.0
1904-01-01 00:19:13.724145049,E4_Acc,2024-06-25 13:58:46.054460049,-23.0,-59.0,12.0
1904-01-01 00:19:13.755395049,E4_Acc,2024-06-25 13:58:46.085710049,-23.0,-59.0,12.0
1904-01-01 00:19:13.786645049,E4_Acc,2024-06-25 13:58:46.116960049,-24.0,-60.0,13.0
1904-01-01 00:19:13.817895049,E4_Acc,2024-06-25 13:58:46.148210049,-24.0,-60.0,13.0
1904-01-01 00:19:13.849145049,E4_Acc,2024-06-25 13:58:46.179460049,-24.0,-59.0,13.0
1904-01-01 00:19:13.880395049,E4_Acc,2024-06-25 13:58:46.210710049,-23.0,-58.0,12.0
1904-01-01 00:19:13.911655062,E4_Acc,2024-06-25 13:58:46.241970062,-24.0,-59.0,13.0
1904-01-01 00:19:13.942905062,E4_Acc,2024-06-25 13:58:46.273220062,-24.0,-60.0,13.0
1904-01-01 00:19:13.974155062,E4_Acc,2024-06-25 13:58:46.304470062,-24.0,-60.0,13.0
1904-01-01 00:19:14.005405062,E4_Acc,2024-06-25 13:58:46.335720062,-24.0,-59.0,13.0
1904-01-01 00:19:14.036655062,E4_Acc,2024-06-25 13:58:46.366970062,-23.0,-59.0,13.0
1904-01-01 00:19:14.067905062,E4_Acc,2024-06-25 13:58:46.398220062,-23.0,-59.0,12.0
1904-01-01 00:19:14.099155062,E4_Acc,2024-06-25 13:58:46.429470062,-23.0,-59.0,12.0
1904-01-01 00:19:14.130415076,E4_Acc,2024-06-25 13:58:46.460730076,-23.0,-60.0,12.0
1904-01-01 00:19:14.161665076,E4_Acc,2024-06-25 13:58:46.491980076,-24.0,-60.0,12.0
1904-01-01 00:19:14.192915076,E4_Acc,2024-06-25 13:58:46.523230076,-23.0,-59.0,12.0
1904-01-01 00:19:14.224165076,E4_Acc,2024-06-25 13:58:46.554480076,-23.0,-59.0,12.0
1904-01-01 00:19:14.255415076,E4_Acc,2024-06-25 13:58:46.585730076,-23.0,-59.0,12.0
1904-01-01 00:19:14.286665076,E4_Acc,2024-06-25 13:58:46.616980076,-23.0,-59.0,12.0
1904-01-01 00:19:14.317915076,E4_Acc,2024-06-25 13:58:46.648230076,-24.0,-60.0,12.0
1904-01-01 00:19:14.349175089,E4_Acc,2024-06-25 13:58:46.679490089,-23.0,-59.0,12.0
1904-01-01 00:19:14.380425089,E4_Acc,2024-06-25 13:58:46.710740089,-23.0,-59.0,12.0
1904-01-01 00:19:14.411675089,E4_Acc,2024-06-25 13:58:46.741990089,-23.0,-59.0,12.0
1904-01-01 00:19:14.442925089,E4_Acc,2024-06-25 13:58:46.773240089,-23.0,-60.0,12.0
1904-01-01 00:19:14.474175089,E4_Acc,2024-06-25 13:58:46.804490089,-23.0,-59.0,12.0
1904-01-01 00:19:14.505425089,E4_Acc,2024-06-25 13:58:46.835740089,-23.0,-59.0,13.0
1904-01-01 00:19:14.536675089,E4_Acc,2024-06-25 13:58:46.866990089,-23.0,-59.0,12.0
1904-01-01 00:19:14.567935103,E4_Acc,2024-06-25 13:58:46.898250103,-23.0,-59.0,13.0
1904-01-01 00:19:14.599185103,E4_Acc,2024-06-25 13:58:46.929500103,-23.0,-59.0,13.0
1904-01-01 00:19:14.630435103,E4_Acc,2024-06-25 13:58:46.960750103,-24.0,-59.0,13.0
1904-01-01 00:19:14.661685103,E4_Acc,2024-06-25 13:58:46.992000103,-23.0,-59.0,13.0
1904-01-01 00:19:14.692935103,E4_Acc,2024-06-25 13:58:47.023250103,-23.0,-59.0,13.0
1904-01-01 00:19:14.724185103,E4_Acc,2024-06-25 13:58:47.054500103,-23.0,-60.0,13.0
1904-01-01 00:19:14.755435103,E4_Acc,2024-06-25 13:58:47.085750103,-23.0,-59.0,13.0
1904-01-01 00:19:14.786695117,E4_Acc,2024-06-25 13:58:47.117010117,-23.0,-59.0,13.0
1904-01-01 00:19:14.817945117,E4_Acc,2024-06-25 13:58:47.148260117,-23.0,-59.0,13.0
1904-01-01 00:19:14.849195117,E4_Acc,2024-06-25 13:58:47.179510117,-23.0,-59.0,13.0
1904-01-01 00:19:14.880445117,E4_Acc,2024-06-25 13:58:47.210760117,-23.0,-59.0,13.0
1904-01-01 00:19:14.911695117,E4_Acc,2024-06-25 13:58:47.242010117,-23.0,-60.0,13.0
1904-01-01 00:19:14.942945117,E4_Acc,2024-06-25 13:58:47.273260117,-23.0,-60.0,13.0
1904-01-01 00:19:14.974195117,E4_Acc,2024-06-25 13:58:47.304510117,-23.0,-59.0,13.0
1904-01-01 00:19:15.005454892,E4_Acc,2024-06-25 13:58:47.335769892,-23.0,-59.0,13.0
1904-01-01 00:19:15.036704892,E4_Acc,2024-06-25 13:58:47.367019892,-23.0,-59.0,13.0
1904-01-01 00:19:15.067954892,E4_Acc,2024-06-25 13:58:47.398269892,-23.0,-59.0,13.0
1904-01-01 00:19:15.099204892,E4_Acc,2024-06-25 13:58:47.429519892,-23.0,-59.0,13.0
1904-01-01 00:19:15.130454892,E4_Acc,2024-06-25 13:58:47.460769892,-24.0,-59.0,13.0
1904-01-01 00:19:15.161704892,E4_Acc,2024-06-25 13:58:47.492019892,-23.0,-59.0,13.0
1904-01-01 00:19:15.192954891,E4_Acc,2024-06-25 13:58:47.523269891,-23.0,-59.0,13.0
1904-01-01 00:19:15.224214905,E4_Acc,2024-06-25 13:58:47.554529905,-24.0,-59.0,13.0
1904-01-01 00:19:15.255464905,E4_Acc,2024-06-25 13:58:47.585779905,-24.0,-59.0,14.0
1904-01-01 00:19:15.286714905,E4_Acc,2024-06-25 13:58:47.617029905,-24.0,-59.0,13.0
1904-01-01 00:19:15.317964905,E4_Acc,2024-06-25 13:58:47.648279905,-24.0,-59.0,13.0
1904-01-01 00:19:15.349214905,E4_Acc,2024-06-25 13:58:47.679529905,-24.0,-59.0,13.0
1904-01-01 00:19:15.380464905,E4_Acc,2024-06-25 13:58:47.710779905,-24.0,-59.0,13.0
1904-01-01 00:19:15.411714905,E4_Acc,2024-06-25 13:58:47.742029905,-24.0,-59.0,13.0
1904-01-01 00:19:15.442974919,E4_Acc,2024-06-25 13:58:47.773289919,-24.0,-59.0,13.0
1904-01-01 00:19:15.474224919,E4_Acc,2024-06-25 13:58:47.804539919,-24.0,-59.0,13.0
1904-01-01 00:19:15.505474919,E4_Acc,2024-06-25 13:58:47.835789919,-23.0,-59.0,13.0
1904-01-01 00:19:15.536724919,E4_Acc,2024-06-25 13:58:47.867039919,-24.0,-59.0,13.0
1904-01-01 00:19:15.567974919,E4_Acc,2024-06-25 13:58:47.898289919,-24.0,-59.0,13.0
1904-01-01 00:19:15.599224919,E4_Acc,2024-06-25 13:58:47.929539919,-24.0,-59.0,13.0
1904-01-01 00:19:15.630474919,E4_Acc,2024-06-25 13:58:47.960789919,-24.0,-59.0,13.0
1904-01-01 00:19:15.661734932,E4_Acc,2024-06-25 13:58:47.992049932,-23.0,-59.0,13.0
1904-01-01 00:19:15.692984932,E4_Acc,2024-06-25 13:58:48.023299932,-23.0,-59.0,13.0
1904-01-01 00:19:15.724234932,E4_Acc,2024-06-25 13:58:48.054549932,-24.0,-59.0,13.0
1904-01-01 00:19:15.755484932,E4_Acc,2024-06-25 13:58:48.085799932,-24.0,-59.0,13.0
1904-01-01 00:19:15.786734932,E4_Acc,2024-06-25 13:58:48.117049932,-24.0,-59.0,13.0
1904-01-01 00:19:15.817984932,E4_Acc,2024-06-25 13:58:48.148299932,-24.0,-59.0,13.0
1904-01-01 00:19:15.849234932,E4_Acc,2024-06-25 13:58:48.179549932,-24.0,-59.0,12.0
1904-01-01 00:19:15.880494946,E4_Acc,2024-06-25 13:58:48.210809946,-24.0,-59.0,13.0
1904-01-01 00:19:15.911744946,E4_Acc,2024-06-25 13:58:48.242059946,-24.0,-59.0,13.0
1904-01-01 00:19:15.942994946,E4_Acc,2024-06-25 13:58:48.273309946,-24.0,-59.0,13.0
1904-01-01 00:19:15.974244946,E4_Acc,2024-06-25 13:58:48.304559946,-24.0,-59.0,13.0
1904-01-01 00:19:16.005494946,E4_Acc,2024-06-25 13:58:48.335809946,-24.0,-59.0,13.0
1904-01-01 00:19:16.036744946,E4_Acc,2024-06-25 13:58:48.367059946,-24.0,-59.0,13.0
1904-01-01 00:19:16.068004960,E4_Acc,2024-06-25 13:58:48.398319960,-24.0,-59.0,13.0
1904-01-01 00:19:16.099254960,E4_Acc,2024-06-25 13:58:48.429569960,-24.0,-59.0,13.0
1904-01-01 00:19:16.130504960,E4_Acc,2024-06-25 13:58:48.460819960,-24.0,-59.0,13.0
1904-01-01 00:19:16.161754960,E4_Acc,2024-06-25 13:58:48.492069960,-24.0,-59.0,13.0
1904-01-01 00:19:16.193004960,E4_Acc,2024-06-25 13:58:48.523319960,-24.0,-59.0,13.0
1904-01-01 00:19:16.224254960,E4_Acc,2024-06-25 13:58:48.554569960,-24.0,-59.0,13.0
1904-01-01 00:19:16.255504960,E4_Acc,2024-06-25 13:58:48.585819960,-24.0,-59.0,13.0
1904-01-01 00:19:16.286764973,E4_Acc,2024-06-25 13:58:48.617079973,-24.0,-59.0,12.0
1904-01-01 00:19:16.318014973,E4_Acc,2024-06-25 13:58:48.648329973,-24.0,-59.0,13.0
1904-01-01 00:19:16.349264973,E4_Acc,2024-06-25 13:58:48.679579973,-24.0,-59.0,12.0
1904-01-01 00:19:16.380514973,E4_Acc,2024-06-25 13:58:48.710829973,-24.0,-59.0,13.0
1904-01-01 00:19:16.411764973,E4_Acc,2024-06-25 13:58:48.742079973,-24.0,-59.0,13.0
1904-01-01 00:19:16.443014973,E4_Acc,2024-06-25 13:58:48.773329973,-24.0,-59.0,13.0
1904-01-01 00:19:16.474264973,E4_Acc,2024-06-25 13:58:48.804579973,-24.0,-59.0,13.0
1904-01-01 00:19:16.505524987,E4_Acc,2024-06-25 13:58:48.835839987,-24.0,-59.0,13.0
1904-01-01 00:19:16.536774987,E4_Acc,2024-06-25 13:58:48.867089987,-24.0,-59.0,12.0
1904-01-01 00:19:16.568024987,E4_Acc,2024-06-25 13:58:48.898339987,-24.0,-59.0,12.0
1904-01-01 00:19:16.599274987,E4_Acc,2024-06-25 13:58:48.929589987,-24.0,-59.0,12.0
1904-01-01 00:19:16.630524987,E4_Acc,2024-06-25 13:58:48.960839987,-24.0,-59.0,12.0
1904-01-01 00:19:16.661774987,E4_Acc,2024-06-25 13:58:48.992089987,-24.0,-59.0,12.0
1904-01-01 00:19:16.693024987,E4_Acc,2024-06-25 13:58:49.023339987,-24.0,-59.0,12.0
1904-01-01 00:19:16.724285000,E4_Acc,2024-06-25 13:58:49.054600000,-24.0,-59.0,12.0
1904-01-01 00:19:16.755535000,E4_Acc,2024-06-25 13:58:49.085850000,-24.0,-59.0,12.0
1904-01-01 00:19:16.786785000,E4_Acc,2024-06-25 13:58:49.117100000,-24.0,-59.0,12.0
1904-01-01 00:19:16.818035000,E4_Acc,2024-06-25 13:58:49.148350000,-24.0,-60.0,12.0
1904-01-01 00:19:16.849285000,E4_Acc,2024-06-25 13:58:49.179600000,-24.0,-59.0,13.0
