Seconds,Stream,E4_Seconds,AccX,AccY,AccZ
1904-01-01 00:36:56.540992104,E4_Acc,2024-06-28 15:21:46.226200104,-12.0,-64.0,11.0
1904-01-01 00:36:56.572242104,E4_Acc,2024-06-28 15:21:46.257450104,-11.0,-63.0,12.0
1904-01-01 00:36:56.603492104,E4_Acc,2024-06-28 15:21:46.288700104,-11.0,-62.0,12.0
1904-01-01 00:36:56.634742104,E4_Acc,2024-06-28 15:21:46.319950104,-11.0,-64.0,12.0
1904-01-01 00:36:56.665992104,E4_Acc,2024-06-28 15:21:46.351200104,-11.0,-62.0,12.0
1904-01-01 00:36:56.697242104,E4_Acc,2024-06-28 15:21:46.382450104,-11.0,-62.0,13.0
1904-01-01 00:36:56.728492104,E4_Acc,2024-06-28 15:21:46.413700104,-12.0,-62.0,12.0
1904-01-01 00:36:56.759752117,E4_Acc,2024-06-28 15:21:46.444960117,-13.0,-63.0,12.0
1904-01-01 00:36:56.791002117,E4_Acc,2024-06-28 15:21:46.476210117,-13.0,-63.0,12.0
1904-01-01 00:36:56.822252117,E4_Acc,2024-06-28 15:21:46.507460117,-13.0,-64.0,12.0
1904-01-01 00:36:56.853502117,E4_Acc,2024-06-28 15:21:46.538710117,-13.0,-63.0,12.0
1904-01-01 00:36:56.884752117,E4_Acc,2024-06-28 15:21:46.569960117,-13.0,-65.0,11.0
1904-01-01 00:36:56.916002117,E4_Acc,2024-06-28 15:21:46.601210117,-12.0,-63.0,12.0
1904-01-01 00:36:56.947252117,E4_Acc,2024-06-28 15:21:46.632460117,-12.0,-62.0,12.0
1904-01-01 00:36:56.978511893,E4_Acc,2024-06-28 15:21:46.663719893,-12.0,-62.0,12.0
1904-01-01 00:36:57.009761893,E4_Acc,2024-06-28 15:21:46.694969893,-13.0,-62.0,11.0
1904-01-01 00:36:57.041011893,E4_Acc,2024-06-28 15:21:46.726219893,-12.0,-63.0,12.0
1904-01-01 00:36:57.072261893,E4_Acc,2024-06-28 15:21:46.757469893,-12.0,-63.0,11.0
1904-01-01 00:36:57.103511893,E4_Acc,2024-06-28 15:21:46.788719893,-12.0,-63.0,12.0
1904-01-01 00:36:57.134761893,E4_Acc,2024-06-28 15:21:46.819969893,-12.0,-63.0,11.0
1904-01-01 00:36:57.166011893,E4_Acc,2024-06-28 15:21:46.851219893,-12.0,-64.0,12.0
1904-01-01 00:36:57.197271906,E4_Acc,2024-06-28 15:21:46.882479906,-11.0,-63.0,12.0
1904-01-01 00:36:57.228521906,E4_Acc,2024-06-28 15:21:46.913729906,-12.0,-61.0,12.0
1904-01-01 00:36:57.259771906,E4_Acc,2024-06-28 15:21:46.944979906,-11.0,-61.0,12.0
1904-01-01 00:36:57.291021906,E4_Acc,2024-06-28 15:21:46.976229906,-12.0,-62.0,12.0
1904-01-01 00:36:57.322271906,E4_Acc,2024-06-28 15:21:47.007479906,-13.0,-62.0,12.0
1904-01-01 00:36:57.353521906,E4_Acc,2024-06-28 15:21:47.038729906,-12.0,-63.0,12.0
1904-01-01 00:36:57.384771906,E4_Acc,2024-06-28 15:21:47.069979906,-12.0,-63.0,12.0
1904-01-01 00:36:57.416031920,E4_Acc,2024-06-28 15:21:47.101239920,-13.0,-62.0,12.0
1904-01-01 00:36:57.447281920,E4_Acc,2024-06-28 15:21:47.132489920,-13.0,-65.0,12.0
1904-01-01 00:36:57.478531920,E4_Acc,2024-06-28 15:21:47.163739920,-13.0,-65.0,12.0
1904-01-01 00:36:57.509781920,E4_Acc,2024-06-28 15:21:47.194989920,-11.0,-64.0,13.0
1904-01-01 00:36:57.541031920,E4_Acc,2024-06-28 15:21:47.226239920,-11.0,-62.0,11.0
1904-01-01 00:36:57.572281919,E4_Acc,2024-06-28 15:21:47.257489919,-11.0,-61.0,12.0
1904-01-01 00:36:57.603531920,E4_Acc,2024-06-28 15:21:47.288739920,-11.0,-61.0,11.0
1904-01-01 00:36:57.634791933,E4_Acc,2024-06-28 15:21:47.319999933,-11.0,-60.0,10.0
1904-01-01 00:36:57.666041933,E4_Acc,2024-06-28 15:21:47.351249933,-11.0,-62.0,10.0
1904-01-01 00:36:57.697291933,E4_Acc,2024-06-28 15:21:47.382499933,-12.0,-63.0,11.0
1904-01-01 00:36:57.728541933,E4_Acc,2024-06-28 15:21:47.413749933,-12.0,-63.0,12.0
1904-01-01 00:36:57.759791933,E4_Acc,2024-06-28 15:21:47.444999933,-12.0,-64.0,12.0
1904-01-01 00:36:57.791041933,E4_Acc,2024-06-28 15:21:47.476249933,-12.0,-63.0,13.0
1904-01-01 00:36:57.822291932,E4_Acc,2024-06-28 15:21:47.507499932,-12.0,-63.0,13.0
1904-01-01 00:36:57.853551947,E4_Acc,2024-06-28 15:21:47.538759947,-12.0,-62.0,12.0
1904-01-01 00:36:57.884801947,E4_Acc,2024-06-28 15:21:47.570009947,-12.0,-62.0,12.0
1904-01-01 00:36:57.916051947,E4_Acc,2024-06-28 15:21:47.601259947,-12.0,-61.0,12.0
1904-01-01 00:36:57.947301947,E4_Acc,2024-06-28 15:21:47.632509947,-12.0,-63.0,12.0
1904-01-01 00:36:57.978551947,E4_Acc,2024-06-28 15:21:47.663759947,-12.0,-63.0,12.0
1904-01-01 00:36:58.009801947,E4_Acc,2024-06-28 15:21:47.695009947,-12.0,-63.0,11.0
1904-01-01 00:36:58.041051947,E4_Acc,2024-06-28 15:21:47.726259947,-12.0,-63.0,12.0
1904-01-01 00:36:58.072311960,E4_Acc,2024-06-28 15:21:47.757519960,-11.0,-63.0,12.0
1904-01-01 00:36:58.103561960,E4_Acc,2024-06-28 15:21:47.788769960,-11.0,-62.0,11.0
1904-01-01 00:36:58.134811960,E4_Acc,2024-06-28 15:21:47.820019960,-11.0,-62.0,12.0
1904-01-01 00:36:58.166061960,E4_Acc,2024-06-28 15:21:47.851269960,-12.0,-62.0,12.0
1904-01-01 00:36:58.197311960,E4_Acc,2024-06-28 15:21:47.882519960,-12.0,-63.0,12.0
1904-01-01 00:36:58.228561960,E4_Acc,2024-06-28 15:21:47.913769960,-13.0,-63.0,12.0
1904-01-01 00:36:58.259811960,E4_Acc,2024-06-28 15:21:47.945019960,-13.0,-62.0,12.0
1904-01-01 00:36:58.291071974,E4_Acc,2024-06-28 15:21:47.976279974,-13.0,-62.0,12.0
1904-01-01 00:36:58.322321974,E4_Acc,2024-06-28 15:21:48.007529974,-13.0,-62.0,11.0
1904-01-01 00:36:58.353571974,E4_Acc,2024-06-28 15:21:48.038779974,-13.0,-62.0,10.0
1904-01-01 00:36:58.384821974,E4_Acc,2024-06-28 15:21:48.070029974,-13.0,-63.0,11.0
1904-01-01 00:36:58.416071974,E4_Acc,2024-06-28 15:21:48.101279974,-13.0,-63.0,11.0
1904-01-01 00:36:58.447321974,E4_Acc,2024-06-28 15:21:48.132529974,-13.0,-63.0,11.0
1904-01-01 00:36:58.478581988,E4_Acc,2024-06-28 15:21:48.163789988,-12.0,-63.0,12.0
1904-01-01 00:36:58.509831988,E4_Acc,2024-06-28 15:21:48.195039988,-11.0,-63.0,11.0
1904-01-01 00:36:58.541081988,E4_Acc,2024-06-28 15:21:48.226289988,-12.0,-64.0,11.0
1904-01-01 00:36:58.572331988,E4_Acc,2024-06-28 15:21:48.257539988,-12.0,-63.0,11.0
1904-01-01 00:36:58.603581988,E4_Acc,2024-06-28 15:21:48.288789988,-13.0,-63.0,10.0
1904-01-01 00:36:58.634831988,E4_Acc,2024-06-28 15:21:48.320039988,-12.0,-63.0,10.0
1904-01-01 00:36:58.666081988,E4_Acc,2024-06-28 15:21:48.351289988,-13.0,-63.0,9.0
1904-01-01 00:36:58.697342001,E4_Acc,2024-06-28 15:21:48.382550001,-13.0,-62.0,10.0
1904-01-01 00:36:58.728592001,E4_Acc,2024-06-28 15:21:48.413800001,-13.0,-62.0,10.0
1904-01-01 00:36:58.759842001,E4_Acc,2024-06-28 15:21:48.445050001,-13.0,-62.0,10.0
1904-01-01 00:36:58.791092001,E4_Acc,2024-06-28 15:21:48.476300001,-14.0,-62.0,10.0
1904-01-01 00:36:58.822342001,E4_Acc,2024-06-28 15:21:48.507550001,-15.0,-62.0,11.0
1904-01-01 00:36:58.853592001,E4_Acc,2024-06-28 15:21:48.538800001,-15.0,-62.0,11.0
1904-01-01 00:36:58.884842001,E4_Acc,2024-06-28 15:21:48.570050001,-14.0,-63.0,12.0
1904-01-01 00:36:58.916102015,E4_Acc,2024-06-28 15:21:48.601310015,-14.0,-63.0,12.0
1904-01-01 00:36:58.947352015,E4_Acc,2024-06-28 15:21:48.632560015,-15.0,-63.0,11.0
1904-01-01 00:36:58.978602015,E4_Acc,2024-06-28 15:21:48.663810015,-14.0,-64.0,11.0
1904-01-01 00:36:59.009852015,E4_Acc,2024-06-28 15:21:48.695060015,-13.0,-64.0,10.0
1904-01-01 00:36:59.041102015,E4_Acc,2024-06-28 15:21:48.726310015,-13.0,-63.0,10.0
1904-01-01 00:36:59.072352015,E4_Acc,2024-06-28 15:21:48.757560015,-14.0,-63.0,9.0
1904-01-01 00:36:59.103602015,E4_Acc,2024-06-28 15:21:48.788810015,-13.0,-62.0,10.0
1904-01-01 00:36:59.134862028,E4_Acc,2024-06-28 15:21:48.820070028,-12.0,-62.0,10.0
1904-01-01 00:36:59.166112028,E4_Acc,2024-06-28 15:21:48.851320028,-13.0,-62.0,10.0
1904-01-01 00:36:59.197362028,E4_Acc,2024-06-28 15:21:48.882570028,-13.0,-62.0,11.0
1904-01-01 00:36:59.228612028,E4_Acc,2024-06-28 15:21:48.913820028,-13.0,-62.0,12.0
1904-01-01 00:36:59.259862028,E4_Acc,2024-06-28 15:21:48.945070028,-14.0,-63.0,11.0
1904-01-01 00:36:59.291112028,E4_Acc,2024-06-28 15:21:48.976320028,-14.0,-62.0,11.0
1904-01-01 00:36:59.322362028,E4_Acc,2024-06-28 15:21:49.007570028,-14.0,-62.0,11.0
1904-01-01 00:36:59.353622042,E4_Acc,2024-06-28 15:21:49.038830042,-14.0,-62.0,11.0
1904-01-01 00:36:59.384872042,E4_Acc,2024-06-28 15:21:49.070080042,-14.0,-61.0,11.0
1904-01-01 00:36:59.416122042,E4_Acc,2024-06-28 15:21:49.101330042,-14.0,-62.0,10.0
1904-01-01 00:36:59.447372042,E4_Acc,2024-06-28 15:21:49.132580042,-14.0,-63.0,11.0
1904-01-01 00:36:59.478622042,E4_Acc,2024-06-28 15:21:49.163830042,-14.0,-63.0,11.0
1904-01-01 00:36:59.509872042,E4_Acc,2024-06-28 15:21:49.195080042,-13.0,-63.0,11.0
1904-01-01 00:36:59.541122042,E4_Acc,2024-06-28 15:21:49.226330042,-12.0,-63.0,11.0
1904-01-01 00:36:59.572382054,E4_Acc,2024-06-28 15:21:49.257590054,-13.0,-62.0,10.0
1904-01-01 00:36:59.603632055,E4_Acc,2024-06-28 15:21:49.288840055,-12.0,-63.0,11.0
1904-01-01 00:36:59.634882055,E4_Acc,2024-06-28 15:21:49.320090055,-11.0,-63.0,11.0
1904-01-01 00:36:59.666132055,E4_Acc,2024-06-28 15:21:49.351340055,-13.0,-63.0,11.0
1904-01-01 00:36:59.697382055,E4_Acc,2024-06-28 15:21:49.382590055,-13.0,-64.0,11.0
1904-01-01 00:36:59.728632055,E4_Acc,2024-06-28 15:21:49.413840055,-14.0,-65.0,12.0
1904-01-01 00:36:59.759882055,E4_Acc,2024-06-28 15:21:49.445090055,-12.0,-63.0,13.0
1904-01-01 00:36:59.791142069,E4_Acc,2024-06-28 15:21:49.476350069,-11.0,-60.0,11.0
1904-01-01 00:36:59.822392069,E4_Acc,2024-06-28 15:21:49.507600069,-12.0,-58.0,11.0
1904-01-01 00:36:59.853642069,E4_Acc,2024-06-28 15:21:49.538850069,-14.0,-62.0,10.0
1904-01-01 00:36:59.884892069,E4_Acc,2024-06-28 15:21:49.570100069,-14.0,-65.0,11.0
1904-01-01 00:36:59.916142069,E4_Acc,2024-06-28 15:21:49.601350069,-13.0,-66.0,13.0
1904-01-01 00:36:59.947392069,E4_Acc,2024-06-28 15:21:49.632600069,-13.0,-65.0,12.0
1904-01-01 00:36:59.978642069,E4_Acc,2024-06-28 15:21:49.663850069,-13.0,-63.0,12.0
1904-01-01 00:37:00.009902083,E4_Acc,2024-06-28 15:21:49.695110083,-11.0,-62.0,12.0
1904-01-01 00:37:00.041152083,E4_Acc,2024-06-28 15:21:49.726360083,-12.0,-62.0,12.0
1904-01-01 00:37:00.072402083,E4_Acc,2024-06-28 15:21:49.757610083,-14.0,-61.0,11.0
1904-01-01 00:37:00.103652083,E4_Acc,2024-06-28 15:21:49.788860083,-14.0,-61.0,11.0
1904-01-01 00:37:00.134902083,E4_Acc,2024-06-28 15:21:49.820110083,-13.0,-62.0,10.0
1904-01-01 00:37:00.166152083,E4_Acc,2024-06-28 15:21:49.851360083,-13.0,-62.0,11.0
1904-01-01 00:37:00.197402083,E4_Acc,2024-06-28 15:21:49.882610083,-13.0,-63.0,10.0
1904-01-01 00:37:00.228662096,E4_Acc,2024-06-28 15:21:49.913870096,-13.0,-63.0,11.0
1904-01-01 00:37:00.259912096,E4_Acc,2024-06-28 15:21:49.945120096,-13.0,-63.0,12.0
1904-01-01 00:37:00.291162096,E4_Acc,2024-06-28 15:21:49.976370096,-12.0,-62.0,12.0
1904-01-01 00:37:00.322412096,E4_Acc,2024-06-28 15:21:50.007620096,-11.0,-63.0,12.0
1904-01-01 00:37:00.353662096,E4_Acc,2024-06-28 15:21:50.038870096,-11.0,-63.0,12.0
1904-01-01 00:37:00.384912096,E4_Acc,2024-06-28 15:21:50.070120096,-11.0,-62.0,11.0
1904-01-01 00:37:00.416162096,E4_Acc,2024-06-28 15:21:50.101370096,-12.0,-63.0,10.0
1904-01-01 00:37:00.447422110,E4_Acc,2024-06-28 15:21:50.132630110,-14.0,-64.0,11.0
1904-01-01 00:37:00.478672110,E4_Acc,2024-06-28 15:21:50.163880110,-14.0,-63.0,11.0
1904-01-01 00:37:00.509922110,E4_Acc,2024-06-28 15:21:50.195130110,-14.0,-62.0,11.0
1904-01-01 00:37:00.541172110,E4_Acc,2024-06-28 15:21:50.226380110,-13.0,-62.0,11.0
1904-01-01 00:37:00.572422110,E4_Acc,2024-06-28 15:21:50.257630110,-13.0,-62.0,11.0
1904-01-01 00:37:00.603672110,E4_Acc,2024-06-28 15:21:50.288880110,-13.0,-62.0,12.0
1904-01-01 00:37:00.634922110,E4_Acc,2024-06-28 15:21:50.320130110,-13.0,-63.0,11.0
1904-01-01 00:37:00.666181885,E4_Acc,2024-06-28 15:21:50.351389885,-14.0,-63.0,11.0
1904-01-01 00:37:00.697431885,E4_Acc,2024-06-28 15:21:50.382639885,-13.0,-64.0,11.0
1904-01-01 00:37:00.728681885,E4_Acc,2024-06-28 15:21:50.413889885,-13.0,-64.0,11.0
1904-01-01 00:37:00.759931885,E4_Acc,2024-06-28 15:21:50.445139885,-12.0,-63.0,11.0
1904-01-01 00:37:00.791181885,E4_Acc,2024-06-28 15:21:50.476389885,-13.0,-63.0,11.0
1904-01-01 00:37:00.822431885,E4_Acc,2024-06-28 15:21:50.507639885,-12.0,-62.0,12.0
1904-01-01 00:37:00.853691899,E4_Acc,2024-06-28 15:21:50.538899899,-12.0,-61.0,12.0
1904-01-01 00:37:00.884941899,E4_Acc,2024-06-28 15:21:50.570149899,-12.0,-62.0,10.0
1904-01-01 00:37:00.916191899,E4_Acc,2024-06-28 15:21:50.601399899,-14.0,-62.0,10.0
1904-01-01 00:37:00.947441899,E4_Acc,2024-06-28 15:21:50.632649899,-13.0,-64.0,11.0
1904-01-01 00:37:00.978691899,E4_Acc,2024-06-28 15:21:50.663899899,-13.0,-64.0,12.0
1904-01-01 00:37:01.009941899,E4_Acc,2024-06-28 15:21:50.695149899,-13.0,-63.0,11.0
1904-01-01 00:37:01.041191899,E4_Acc,2024-06-28 15:21:50.726399899,-13.0,-62.0,10.0
1904-01-01 00:37:01.072451912,E4_Acc,2024-06-28 15:21:50.757659912,-14.0,-61.0,9.0
1904-01-01 00:37:01.103701912,E4_Acc,2024-06-28 15:21:50.788909912,-14.0,-62.0,9.0
1904-01-01 00:37:01.134951912,E4_Acc,2024-06-28 15:21:50.820159912,-14.0,-62.0,10.0
1904-01-01 00:37:01.166201912,E4_Acc,2024-06-28 15:21:50.851409912,-14.0,-63.0,10.0
1904-01-01 00:37:01.197451912,E4_Acc,2024-06-28 15:21:50.882659912,-14.0,-63.0,11.0
1904-01-01 00:37:01.228701912,E4_Acc,2024-06-28 15:21:50.913909912,-14.0,-63.0,12.0
1904-01-01 00:37:01.259951912,E4_Acc,2024-06-28 15:21:50.945159912,-14.0,-63.0,11.0
1904-01-01 00:37:01.291211926,E4_Acc,2024-06-28 15:21:50.976419926,-14.0,-63.0,11.0
1904-01-01 00:37:01.322461926,E4_Acc,2024-06-28 15:21:51.007669926,-14.0,-62.0,12.0
1904-01-01 00:37:01.353711926,E4_Acc,2024-06-28 15:21:51.038919926,-14.0,-62.0,11.0
1904-01-01 00:37:01.384961926,E4_Acc,2024-06-28 15:21:51.070169926,-14.0,-63.0,11.0
1904-01-01 00:37:01.416211926,E4_Acc,2024-06-28 15:21:51.101419926,-14.0,-64.0,10.0
1904-01-01 00:37:01.447461926,E4_Acc,2024-06-28 15:21:51.132669926,-14.0,-64.0,10.0
1904-01-01 00:37:01.478711926,E4_Acc,2024-06-28 15:21:51.163919926,-13.0,-63.0,10.0
1904-01-01 00:37:01.509971939,E4_Acc,2024-06-28 15:21:51.195179939,-13.0,-62.0,10.0
1904-01-01 00:37:01.541221939,E4_Acc,2024-06-28 15:21:51.226429939,-13.0,-63.0,10.0
1904-01-01 00:37:01.572471939,E4_Acc,2024-06-28 15:21:51.257679939,-12.0,-63.0,11.0
1904-01-01 00:37:01.603721939,E4_Acc,2024-06-28 15:21:51.288929939,-12.0,-63.0,11.0
1904-01-01 00:37:01.634971939,E4_Acc,2024-06-28 15:21:51.320179939,-13.0,-63.0,10.0
1904-01-01 00:37:01.666221939,E4_Acc,2024-06-28 15:21:51.351429939,-13.0,-63.0,12.0
1904-01-01 00:37:01.697471939,E4_Acc,2024-06-28 15:21:51.382679939,-13.0,-62.0,12.0
1904-01-01 00:37:01.728731953,E4_Acc,2024-06-28 15:21:51.413939953,-14.0,-62.0,10.0
1904-01-01 00:37:01.759981953,E4_Acc,2024-06-28 15:21:51.445189953,-14.0,-62.0,10.0
1904-01-01 00:37:01.791231953,E4_Acc,2024-06-28 15:21:51.476439953,-14.0,-62.0,11.0
1904-01-01 00:37:01.822481953,E4_Acc,2024-06-28 15:21:51.507689953,-13.0,-63.0,11.0
1904-01-01 00:37:01.853731953,E4_Acc,2024-06-28 15:21:51.538939953,-13.0,-63.0,11.0
1904-01-01 00:37:01.884981953,E4_Acc,2024-06-28 15:21:51.570189953,-14.0,-62.0,10.0
1904-01-01 00:37:01.916231953,E4_Acc,2024-06-28 15:21:51.601439953,-14.0,-62.0,11.0
1904-01-01 00:37:01.947491966,E4_Acc,2024-06-28 15:21:51.632699966,-13.0,-62.0,11.0
1904-01-01 00:37:01.978741966,E4_Acc,2024-06-28 15:21:51.663949966,-14.0,-63.0,11.0
1904-01-01 00:37:02.009991966,E4_Acc,2024-06-28 15:21:51.695199966,-13.0,-63.0,12.0
1904-01-01 00:37:02.041241966,E4_Acc,2024-06-28 15:21:51.726449966,-13.0,-63.0,12.0
1904-01-01 00:37:02.072491966,E4_Acc,2024-06-28 15:21:51.757699966,-13.0,-62.0,11.0
1904-01-01 00:37:02.103741966,E4_Acc,2024-06-28 15:21:51.788949966,-13.0,-63.0,12.0
1904-01-01 00:37:02.134991966,E4_Acc,2024-06-28 15:21:51.820199966,-13.0,-63.0,11.0
1904-01-01 00:37:02.166251980,E4_Acc,2024-06-28 15:21:51.851459980,-13.0,-63.0,11.0
1904-01-01 00:37:02.197501980,E4_Acc,2024-06-28 15:21:51.882709980,-14.0,-62.0,10.0
1904-01-01 00:37:02.228751980,E4_Acc,2024-06-28 15:21:51.913959980,-14.0,-62.0,10.0
1904-01-01 00:37:02.260001980,E4_Acc,2024-06-28 15:21:51.945209980,-14.0,-62.0,11.0
1904-01-01 00:37:02.291251980,E4_Acc,2024-06-28 15:21:51.976459980,-14.0,-62.0,11.0
1904-01-01 00:37:02.322501980,E4_Acc,2024-06-28 15:21:52.007709980,-14.0,-63.0,11.0
1904-01-01 00:37:02.353751980,E4_Acc,2024-06-28 15:21:52.038959980,-14.0,-62.0,10.0
1904-01-01 00:37:02.385011994,E4_Acc,2024-06-28 15:21:52.070219994,-14.0,-63.0,11.0
1904-01-01 00:37:02.416261994,E4_Acc,2024-06-28 15:21:52.101469994,-14.0,-63.0,11.0
1904-01-01 00:37:02.447511994,E4_Acc,2024-06-28 15:21:52.132719994,-13.0,-63.0,11.0
1904-01-01 00:37:02.478761994,E4_Acc,2024-06-28 15:21:52.163969994,-14.0,-62.0,11.0
1904-01-01 00:37:02.510011994,E4_Acc,2024-06-28 15:21:52.195219994,-14.0,-61.0,10.0
1904-01-01 00:37:02.541261994,E4_Acc,2024-06-28 15:21:52.226469994,-14.0,-62.0,11.0
1904-01-01 00:37:02.572511994,E4_Acc,2024-06-28 15:21:52.257719994,-15.0,-62.0,11.0
1904-01-01 00:37:02.603772007,E4_Acc,2024-06-28 15:21:52.288980007,-15.0,-63.0,10.0
1904-01-01 00:37:02.635022007,E4_Acc,2024-06-28 15:21:52.320230007,-16.0,-64.0,11.0
1904-01-01 00:37:02.666272007,E4_Acc,2024-06-28 15:21:52.351480007,-15.0,-63.0,12.0
1904-01-01 00:37:02.697522007,E4_Acc,2024-06-28 15:21:52.382730007,-15.0,-63.0,12.0
1904-01-01 00:37:02.728772007,E4_Acc,2024-06-28 15:21:52.413980007,-14.0,-63.0,12.0
1904-01-01 00:37:02.760022007,E4_Acc,2024-06-28 15:21:52.445230007,-13.0,-63.0,12.0
1904-01-01 00:37:02.791272007,E4_Acc,2024-06-28 15:21:52.476480007,-13.0,-63.0,12.0
1904-01-01 00:37:02.822532021,E4_Acc,2024-06-28 15:21:52.507740021,-13.0,-64.0,12.0
1904-01-01 00:37:02.853782021,E4_Acc,2024-06-28 15:21:52.538990021,-13.0,-62.0,12.0
1904-01-01 00:37:02.885032021,E4_Acc,2024-06-28 15:21:52.570240021,-13.0,-61.0,12.0
1904-01-01 00:37:02.916282021,E4_Acc,2024-06-28 15:21:52.601490021,-13.0,-59.0,11.0
1904-01-01 00:37:02.947532021,E4_Acc,2024-06-28 15:21:52.632740021,-13.0,-60.0,10.0
1904-01-01 00:37:02.978782021,E4_Acc,2024-06-28 15:21:52.663990021,-14.0,-62.0,11.0
1904-01-01 00:37:03.010032021,E4_Acc,2024-06-28 15:21:52.695240021,-13.0,-63.0,11.0
1904-01-01 00:37:03.041292034,E4_Acc,2024-06-28 15:21:52.726500034,-14.0,-62.0,10.0
1904-01-01 00:37:03.072542034,E4_Acc,2024-06-28 15:21:52.757750034,-14.0,-63.0,10.0
1904-01-01 00:37:03.103792034,E4_Acc,2024-06-28 15:21:52.789000034,-14.0,-63.0,10.0
1904-01-01 00:37:03.135042034,E4_Acc,2024-06-28 15:21:52.820250034,-14.0,-65.0,12.0
1904-01-01 00:37:03.166292034,E4_Acc,2024-06-28 15:21:52.851500034,-13.0,-63.0,12.0
1904-01-01 00:37:03.197542034,E4_Acc,2024-06-28 15:21:52.882750034,-13.0,-61.0,12.0
1904-01-01 00:37:03.228802048,E4_Acc,2024-06-28 15:21:52.914010048,-14.0,-60.0,12.0
1904-01-01 00:37:03.260052048,E4_Acc,2024-06-28 15:21:52.945260048,-14.0,-60.0,11.0
1904-01-01 00:37:03.291302048,E4_Acc,2024-06-28 15:21:52.976510048,-15.0,-61.0,10.0
1904-01-01 00:37:03.322552048,E4_Acc,2024-06-28 15:21:53.007760048,-15.0,-63.0,10.0
1904-01-01 00:37:03.353802048,E4_Acc,2024-06-28 15:21:53.039010048,-15.0,-63.0,10.0
1904-01-01 00:37:03.385052048,E4_Acc,2024-06-28 15:21:53.070260048,-16.0,-63.0,10.0
1904-01-01 00:37:03.416302048,E4_Acc,2024-06-28 15:21:53.101510048,-16.0,-63.0,10.0
1904-01-01 00:37:03.447562061,E4_Acc,2024-06-28 15:21:53.132770061,-17.0,-64.0,11.0
1904-01-01 00:37:03.478812061,E4_Acc,2024-06-28 15:21:53.164020061,-18.0,-63.0,12.0
1904-01-01 00:37:03.510062061,E4_Acc,2024-06-28 15:21:53.195270061,-17.0,-63.0,12.0
1904-01-01 00:37:03.541312061,E4_Acc,2024-06-28 15:21:53.226520061,-16.0,-62.0,12.0
1904-01-01 00:37:03.572562061,E4_Acc,2024-06-28 15:21:53.257770061,-15.0,-62.0,12.0
1904-01-01 00:37:03.603812061,E4_Acc,2024-06-28 15:21:53.289020061,-16.0,-61.0,11.0
1904-01-01 00:37:03.635062061,E4_Acc,2024-06-28 15:21:53.320270061,-16.0,-62.0,10.0
1904-01-01 00:37:03.666322075,E4_Acc,2024-06-28 15:21:53.351530075,-16.0,-62.0,9.0
1904-01-01 00:37:03.697572075,E4_Acc,2024-06-28 15:21:53.382780075,-15.0,-62.0,9.0
1904-01-01 00:37:03.728822075,E4_Acc,2024-06-28 15:21:53.414030075,-15.0,-62.0,9.0
1904-01-01 00:37:03.760072075,E4_Acc,2024-06-28 15:21:53.445280075,-15.0,-62.0,8.0
1904-01-01 00:37:03.791322075,E4_Acc,2024-06-28 15:21:53.476530075,-14.0,-63.0,10.0
1904-01-01 00:37:03.822572075,E4_Acc,2024-06-28 15:21:53.507780075,-14.0,-64.0,10.0
1904-01-01 00:37:03.853822075,E4_Acc,2024-06-28 15:21:53.539030075,-13.0,-63.0,10.0
1904-01-01 00:37:03.885082089,E4_Acc,2024-06-28 15:21:53.570290089,-13.0,-62.0,10.0
1904-01-01 00:37:03.916332089,E4_Acc,2024-06-28 15:21:53.601540089,-13.0,-62.0,10.0
1904-01-01 00:37:03.947582089,E4_Acc,2024-06-28 15:21:53.632790089,-13.0,-62.0,10.0
1904-01-01 00:37:03.978832089,E4_Acc,2024-06-28 15:21:53.664040089,-13.0,-62.0,10.0
1904-01-01 00:37:04.010082089,E4_Acc,2024-06-28 15:21:53.695290089,-14.0,-62.0,10.0
1904-01-01 00:37:04.041332089,E4_Acc,2024-06-28 15:21:53.726540089,-14.0,-63.0,11.0
1904-01-01 00:37:04.072582089,E4_Acc,2024-06-28 15:21:53.757790089,-14.0,-63.0,11.0
1904-01-01 00:37:04.103842102,E4_Acc,2024-06-28 15:21:53.789050102,-15.0,-63.0,12.0
1904-01-01 00:37:04.135092102,E4_Acc,2024-06-28 15:21:53.820300102,-15.0,-63.0,11.0
1904-01-01 00:37:04.166342102,E4_Acc,2024-06-28 15:21:53.851550102,-15.0,-62.0,11.0
1904-01-01 00:37:04.197592102,E4_Acc,2024-06-28 15:21:53.882800102,-15.0,-63.0,11.0
1904-01-01 00:37:04.228842102,E4_Acc,2024-06-28 15:21:53.914050102,-16.0,-63.0,12.0
1904-01-01 00:37:04.260092102,E4_Acc,2024-06-28 15:21:53.945300102,-15.0,-62.0,12.0
1904-01-01 00:37:04.291342102,E4_Acc,2024-06-28 15:21:53.976550102,-16.0,-62.0,11.0
1904-01-01 00:37:04.322602116,E4_Acc,2024-06-28 15:21:54.007810116,-15.0,-63.0,11.0
1904-01-01 00:37:04.353852116,E4_Acc,2024-06-28 15:21:54.039060116,-15.0,-62.0,10.0
1904-01-01 00:37:04.385102116,E4_Acc,2024-06-28 15:21:54.070310116,-15.0,-62.0,10.0
1904-01-01 00:37:04.416352116,E4_Acc,2024-06-28 15:21:54.101560116,-14.0,-62.0,11.0
1904-01-01 00:37:04.447602116,E4_Acc,2024-06-28 15:21:54.132810116,-14.0,-62.0,10.0
1904-01-01 00:37:04.478852116,E4_Acc,2024-06-28 15:21:54.164060116,-14.0,-62.0,10.0
1904-01-01 00:37:04.510102116,E4_Acc,2024-06-28 15:21:54.195310116,-14.0,-62.0,11.0
1904-01-01 00:37:04.541361891,E4_Acc,2024-06-28 15:21:54.226569891,-14.0,-63.0,11.0
1904-01-01 00:37:04.572611891,E4_Acc,2024-06-28 15:21:54.257819891,-13.0,-63.0,11.0
1904-01-01 00:37:04.603861891,E4_Acc,2024-06-28 15:21:54.289069891,-14.0,-62.0,11.0
1904-01-01 00:37:04.635111891,E4_Acc,2024-06-28 15:21:54.320319891,-14.0,-63.0,10.0
1904-01-01 00:37:04.666361891,E4_Acc,2024-06-28 15:21:54.351569891,-15.0,-62.0,10.0
1904-01-01 00:37:04.697611891,E4_Acc,2024-06-28 15:21:54.382819891,-15.0,-61.0,10.0
1904-01-01 00:37:04.728861891,E4_Acc,2024-06-28 15:21:54.414069891,-14.0,-62.0,11.0
1904-01-01 00:37:04.760121905,E4_Acc,2024-06-28 15:21:54.445329905,-14.0,-61.0,11.0
1904-01-01 00:37:04.791371905,E4_Acc,2024-06-28 15:21:54.476579905,-15.0,-62.0,11.0
1904-01-01 00:37:04.822621905,E4_Acc,2024-06-28 15:21:54.507829905,-15.0,-63.0,12.0
1904-01-01 00:37:04.853871905,E4_Acc,2024-06-28 15:21:54.539079905,-15.0,-63.0,12.0
1904-01-01 00:37:04.885121905,E4_Acc,2024-06-28 15:21:54.570329905,-14.0,-63.0,11.0
1904-01-01 00:37:04.916371905,E4_Acc,2024-06-28 15:21:54.601579905,-14.0,-62.0,11.0
1904-01-01 00:37:04.947621905,E4_Acc,2024-06-28 15:21:54.632829905,-14.0,-63.0,11.0
1904-01-01 00:37:04.978881918,E4_Acc,2024-06-28 15:21:54.664089918,-14.0,-63.0,11.0
1904-01-01 00:37:05.010131918,E4_Acc,2024-06-28 15:21:54.695339918,-14.0,-63.0,11.0
1904-01-01 00:37:05.041381918,E4_Acc,2024-06-28 15:21:54.726589918,-13.0,-63.0,12.0
1904-01-01 00:37:05.072631918,E4_Acc,2024-06-28 15:21:54.757839918,-14.0,-62.0,12.0
1904-01-01 00:37:05.103881918,E4_Acc,2024-06-28 15:21:54.789089918,-14.0,-61.0,11.0
1904-01-01 00:37:05.135131918,E4_Acc,2024-06-28 15:21:54.820339918,-14.0,-62.0,12.0
1904-01-01 00:37:05.166381918,E4_Acc,2024-06-28 15:21:54.851589918,-13.0,-63.0,13.0
1904-01-01 00:37:05.197641932,E4_Acc,2024-06-28 15:21:54.882849932,-12.0,-62.0,12.0
1904-01-01 00:37:05.228891932,E4_Acc,2024-06-28 15:21:54.914099932,-13.0,-62.0,11.0
1904-01-01 00:37:05.260141932,E4_Acc,2024-06-28 15:21:54.945349932,-16.0,-62.0,11.0
1904-01-01 00:37:05.291391932,E4_Acc,2024-06-28 15:21:54.976599932,-15.0,-62.0,10.0
1904-01-01 00:37:05.322641932,E4_Acc,2024-06-28 15:21:55.007849932,-15.0,-61.0,10.0
1904-01-01 00:37:05.353891932,E4_Acc,2024-06-28 15:21:55.039099932,-16.0,-60.0,10.0
1904-01-01 00:37:05.385141932,E4_Acc,2024-06-28 15:21:55.070349932,-15.0,-60.0,10.0
1904-01-01 00:37:05.416401945,E4_Acc,2024-06-28 15:21:55.101609945,-16.0,-62.0,10.0
1904-01-01 00:37:05.447651945,E4_Acc,2024-06-28 15:21:55.132859945,-15.0,-64.0,11.0
1904-01-01 00:37:05.478901945,E4_Acc,2024-06-28 15:21:55.164109945,-16.0,-64.0,11.0
1904-01-01 00:37:05.510151945,E4_Acc,2024-06-28 15:21:55.195359945,-15.0,-63.0,12.0
1904-01-01 00:37:05.541401945,E4_Acc,2024-06-28 15:21:55.226609945,-15.0,-62.0,12.0
1904-01-01 00:37:05.572651944,E4_Acc,2024-06-28 15:21:55.257859944,-14.0,-62.0,12.0
1904-01-01 00:37:05.603901945,E4_Acc,2024-06-28 15:21:55.289109945,-14.0,-62.0,12.0
1904-01-01 00:37:05.635161959,E4_Acc,2024-06-28 15:21:55.320369959,-14.0,-62.0,12.0
1904-01-01 00:37:05.666411959,E4_Acc,2024-06-28 15:21:55.351619959,-14.0,-63.0,11.0
1904-01-01 00:37:05.697661959,E4_Acc,2024-06-28 15:21:55.382869959,-14.0,-63.0,11.0
1904-01-01 00:37:05.728911959,E4_Acc,2024-06-28 15:21:55.414119959,-14.0,-63.0,11.0
1904-01-01 00:37:05.760161959,E4_Acc,2024-06-28 15:21:55.445369959,-14.0,-63.0,11.0
1904-01-01 00:37:05.791411959,E4_Acc,2024-06-28 15:21:55.476619959,-14.0,-63.0,12.0
1904-01-01 00:37:05.822671972,E4_Acc,2024-06-28 15:21:55.507879972,-14.0,-63.0,12.0
1904-01-01 00:37:05.853921972,E4_Acc,2024-06-28 15:21:55.539129972,-15.0,-63.0,11.0
1904-01-01 00:37:05.885171972,E4_Acc,2024-06-28 15:21:55.570379972,-14.0,-62.0,11.0
1904-01-01 00:37:05.916421972,E4_Acc,2024-06-28 15:21:55.601629972,-13.0,-61.0,11.0
1904-01-01 00:37:05.947671972,E4_Acc,2024-06-28 15:21:55.632879972,-13.0,-62.0,10.0
1904-01-01 00:37:05.978921972,E4_Acc,2024-06-28 15:21:55.664129972,-13.0,-62.0,11.0
1904-01-01 00:37:06.010171972,E4_Acc,2024-06-28 15:21:55.695379972,-13.0,-62.0,11.0
1904-01-01 00:37:06.041431986,E4_Acc,2024-06-28 15:21:55.726639986,-13.0,-63.0,11.0
1904-01-01 00:37:06.072681986,E4_Acc,2024-06-28 15:21:55.757889986,-13.0,-64.0,11.0
1904-01-01 00:37:06.103931986,E4_Acc,2024-06-28 15:21:55.789139986,-13.0,-64.0,11.0
1904-01-01 00:37:06.135181986,E4_Acc,2024-06-28 15:21:55.820389986,-14.0,-63.0,11.0
1904-01-01 00:37:06.166431986,E4_Acc,2024-06-28 15:21:55.851639986,-13.0,-62.0,11.0
1904-01-01 00:37:06.197681986,E4_Acc,2024-06-28 15:21:55.882889986,-14.0,-62.0,11.0
1904-01-01 00:37:06.228931986,E4_Acc,2024-06-28 15:21:55.914139986,-14.0,-61.0,11.0
1904-01-01 00:37:06.260192000,E4_Acc,2024-06-28 15:21:55.945400000,-14.0,-61.0,11.0
1904-01-01 00:37:06.291442000,E4_Acc,2024-06-28 15:21:55.976650000,-14.0,-60.0,11.0
1904-01-01 00:37:06.322692000,E4_Acc,2024-06-28 15:21:56.007900000,-15.0,-62.0,10.0
1904-01-01 00:37:06.353942000,E4_Acc,2024-06-28 15:21:56.039150000,-15.0,-62.0,11.0
1904-01-01 00:37:06.385192000,E4_Acc,2024-06-28 15:21:56.070400000,-15.0,-63.0,11.0
1904-01-01 00:37:06.416442000,E4_Acc,2024-06-28 15:21:56.101650000,-15.0,-62.0,11.0
1904-01-01 00:37:06.447691999,E4_Acc,2024-06-28 15:21:56.132899999,-14.0,-63.0,11.0
1904-01-01 00:37:06.478952013,E4_Acc,2024-06-28 15:21:56.164160013,-14.0,-62.0,11.0
1904-01-01 00:37:06.510202013,E4_Acc,2024-06-28 15:21:56.195410013,-14.0,-62.0,11.0
1904-01-01 00:37:06.541452013,E4_Acc,2024-06-28 15:21:56.226660013,-14.0,-62.0,10.0
1904-01-01 00:37:06.572702013,E4_Acc,2024-06-28 15:21:56.257910013,-14.0,-63.0,10.0
1904-01-01 00:37:06.603952013,E4_Acc,2024-06-28 15:21:56.289160013,-14.0,-63.0,11.0
1904-01-01 00:37:06.635202013,E4_Acc,2024-06-28 15:21:56.320410013,-13.0,-63.0,11.0
1904-01-01 00:37:06.666452013,E4_Acc,2024-06-28 15:21:56.351660013,-13.0,-63.0,11.0
1904-01-01 00:37:06.697712027,E4_Acc,2024-06-28 15:21:56.382920027,-14.0,-62.0,11.0
1904-01-01 00:37:06.728962027,E4_Acc,2024-06-28 15:21:56.414170027,-14.0,-62.0,11.0
1904-01-01 00:37:06.760212027,E4_Acc,2024-06-28 15:21:56.445420027,-14.0,-62.0,11.0
1904-01-01 00:37:06.791462027,E4_Acc,2024-06-28 15:21:56.476670027,-15.0,-63.0,11.0
1904-01-01 00:37:06.822712027,E4_Acc,2024-06-28 15:21:56.507920027,-15.0,-63.0,11.0
1904-01-01 00:37:06.853962027,E4_Acc,2024-06-28 15:21:56.539170027,-15.0,-63.0,11.0
1904-01-01 00:37:06.885212027,E4_Acc,2024-06-28 15:21:56.570420027,-15.0,-63.0,11.0
1904-01-01 00:37:06.916472040,E4_Acc,2024-06-28 15:21:56.601680040,-15.0,-62.0,11.0
1904-01-01 00:37:06.947722040,E4_Acc,2024-06-28 15:21:56.632930040,-14.0,-63.0,11.0
1904-01-01 00:37:06.978972040,E4_Acc,2024-06-28 15:21:56.664180040,-14.0,-63.0,11.0
1904-01-01 00:37:07.010222040,E4_Acc,2024-06-28 15:21:56.695430040,-13.0,-63.0,11.0
1904-01-01 00:37:07.041472040,E4_Acc,2024-06-28 15:21:56.726680040,-13.0,-62.0,10.0
1904-01-01 00:37:07.072722040,E4_Acc,2024-06-28 15:21:56.757930040,-12.0,-62.0,11.0
1904-01-01 00:37:07.103972040,E4_Acc,2024-06-28 15:21:56.789180040,-13.0,-62.0,11.0
1904-01-01 00:37:07.135232054,E4_Acc,2024-06-28 15:21:56.820440054,-13.0,-62.0,10.0
1904-01-01 00:37:07.166482054,E4_Acc,2024-06-28 15:21:56.851690054,-13.0,-62.0,11.0
1904-01-01 00:37:07.197732054,E4_Acc,2024-06-28 15:21:56.882940054,-13.0,-62.0,11.0
1904-01-01 00:37:07.228982054,E4_Acc,2024-06-28 15:21:56.914190054,-13.0,-62.0,12.0
1904-01-01 00:37:07.260232054,E4_Acc,2024-06-28 15:21:56.945440054,-13.0,-62.0,11.0
1904-01-01 00:37:07.291482054,E4_Acc,2024-06-28 15:21:56.976690054,-14.0,-63.0,11.0
1904-01-01 00:37:07.322732054,E4_Acc,2024-06-28 15:21:57.007940054,-14.0,-62.0,11.0
1904-01-01 00:37:07.353992068,E4_Acc,2024-06-28 15:21:57.039200068,-15.0,-62.0,11.0
1904-01-01 00:37:07.385242068,E4_Acc,2024-06-28 15:21:57.070450068,-14.0,-63.0,10.0
1904-01-01 00:37:07.416492068,E4_Acc,2024-06-28 15:21:57.101700068,-13.0,-61.0,11.0
1904-01-01 00:37:07.447742068,E4_Acc,2024-06-28 15:21:57.132950068,-14.0,-62.0,11.0
1904-01-01 00:37:07.478992068,E4_Acc,2024-06-28 15:21:57.164200068,-14.0,-63.0,11.0
1904-01-01 00:37:07.510242068,E4_Acc,2024-06-28 15:21:57.195450068,-14.0,-62.0,11.0
1904-01-01 00:37:07.541492068,E4_Acc,2024-06-28 15:21:57.226700068,-14.0,-62.0,11.0
1904-01-01 00:37:07.572752081,E4_Acc,2024-06-28 15:21:57.257960081,-14.0,-62.0,11.0
1904-01-01 00:37:07.604002081,E4_Acc,2024-06-28 15:21:57.289210081,-15.0,-62.0,11.0
1904-01-01 00:37:07.635252081,E4_Acc,2024-06-28 15:21:57.320460081,-15.0,-63.0,11.0
1904-01-01 00:37:07.666502081,E4_Acc,2024-06-28 15:21:57.351710081,-15.0,-63.0,11.0
1904-01-01 00:37:07.697752081,E4_Acc,2024-06-28 15:21:57.382960081,-15.0,-63.0,11.0
1904-01-01 00:37:07.729002081,E4_Acc,2024-06-28 15:21:57.414210081,-15.0,-63.0,11.0
1904-01-01 00:37:07.760252081,E4_Acc,2024-06-28 15:21:57.445460081,-14.0,-62.0,10.0
1904-01-01 00:37:07.791512095,E4_Acc,2024-06-28 15:21:57.476720095,-14.0,-62.0,10.0
1904-01-01 00:37:07.822762095,E4_Acc,2024-06-28 15:21:57.507970095,-14.0,-63.0,11.0
1904-01-01 00:37:07.854012095,E4_Acc,2024-06-28 15:21:57.539220095,-14.0,-63.0,11.0
1904-01-01 00:37:07.885262095,E4_Acc,2024-06-28 15:21:57.570470095,-14.0,-62.0,12.0
1904-01-01 00:37:07.916512095,E4_Acc,2024-06-28 15:21:57.601720095,-13.0,-62.0,11.0
1904-01-01 00:37:07.947762095,E4_Acc,2024-06-28 15:21:57.632970095,-13.0,-62.0,11.0
1904-01-01 00:37:07.979012095,E4_Acc,2024-06-28 15:21:57.664220095,-14.0,-62.0,11.0
1904-01-01 00:37:08.010272108,E4_Acc,2024-06-28 15:21:57.695480108,-13.0,-63.0,11.0
1904-01-01 00:37:08.041522108,E4_Acc,2024-06-28 15:21:57.726730108,-14.0,-63.0,10.0
1904-01-01 00:37:08.072772108,E4_Acc,2024-06-28 15:21:57.757980108,-14.0,-63.0,11.0
1904-01-01 00:37:08.104022108,E4_Acc,2024-06-28 15:21:57.789230108,-14.0,-62.0,11.0
1904-01-01 00:37:08.135272108,E4_Acc,2024-06-28 15:21:57.820480108,-14.0,-62.0,11.0
1904-01-01 00:37:08.166522108,E4_Acc,2024-06-28 15:21:57.851730108,-14.0,-62.0,11.0
1904-01-01 00:37:08.197781883,E4_Acc,2024-06-28 15:21:57.882989883,-14.0,-63.0,11.0
1904-01-01 00:37:08.229031883,E4_Acc,2024-06-28 15:21:57.914239883,-14.0,-63.0,11.0
1904-01-01 00:37:08.260281883,E4_Acc,2024-06-28 15:21:57.945489883,-13.0,-63.0,11.0
1904-01-01 00:37:08.291531883,E4_Acc,2024-06-28 15:21:57.976739883,-14.0,-62.0,11.0
1904-01-01 00:37:08.322781883,E4_Acc,2024-06-28 15:21:58.007989883,-13.0,-62.0,11.0
1904-01-01 00:37:08.354031883,E4_Acc,2024-06-28 15:21:58.039239883,-13.0,-62.0,11.0
1904-01-01 00:37:08.385281883,E4_Acc,2024-06-28 15:21:58.070489883,-14.0,-62.0,11.0
1904-01-01 00:37:08.416541897,E4_Acc,2024-06-28 15:21:58.101749897,-14.0,-63.0,11.0
1904-01-01 00:37:08.447791897,E4_Acc,2024-06-28 15:21:58.132999897,-13.0,-63.0,11.0
1904-01-01 00:37:08.479041897,E4_Acc,2024-06-28 15:21:58.164249897,-13.0,-63.0,11.0
1904-01-01 00:37:08.510291897,E4_Acc,2024-06-28 15:21:58.195499897,-14.0,-62.0,11.0
1904-01-01 00:37:08.541541897,E4_Acc,2024-06-28 15:21:58.226749897,-13.0,-62.0,11.0
1904-01-01 00:37:08.572791896,E4_Acc,2024-06-28 15:21:58.257999896,-13.0,-62.0,11.0
1904-01-01 00:37:08.604041897,E4_Acc,2024-06-28 15:21:58.289249897,-13.0,-63.0,11.0
1904-01-01 00:37:08.635301911,E4_Acc,2024-06-28 15:21:58.320509911,-13.0,-63.0,11.0
1904-01-01 00:37:08.666551911,E4_Acc,2024-06-28 15:21:58.351759911,-13.0,-63.0,11.0
1904-01-01 00:37:08.697801911,E4_Acc,2024-06-28 15:21:58.383009911,-14.0,-62.0,11.0
1904-01-01 00:37:08.729051911,E4_Acc,2024-06-28 15:21:58.414259911,-14.0,-62.0,10.0
1904-01-01 00:37:08.760301911,E4_Acc,2024-06-28 15:21:58.445509911,-14.0,-63.0,10.0
1904-01-01 00:37:08.791551911,E4_Acc,2024-06-28 15:21:58.476759911,-13.0,-63.0,10.0
1904-01-01 00:37:08.822801911,E4_Acc,2024-06-28 15:21:58.508009911,-13.0,-64.0,9.0
1904-01-01 00:37:08.854061924,E4_Acc,2024-06-28 15:21:58.539269924,-12.0,-62.0,10.0
1904-01-01 00:37:08.885311924,E4_Acc,2024-06-28 15:21:58.570519924,-12.0,-62.0,10.0
1904-01-01 00:37:08.916561924,E4_Acc,2024-06-28 15:21:58.601769924,-13.0,-62.0,11.0
1904-01-01 00:37:08.947811924,E4_Acc,2024-06-28 15:21:58.633019924,-14.0,-62.0,11.0
1904-01-01 00:37:08.979061924,E4_Acc,2024-06-28 15:21:58.664269924,-15.0,-62.0,11.0
1904-01-01 00:37:09.010311924,E4_Acc,2024-06-28 15:21:58.695519924,-15.0,-62.0,11.0
1904-01-01 00:37:09.041561924,E4_Acc,2024-06-28 15:21:58.726769924,-16.0,-62.0,11.0
1904-01-01 00:37:09.072821938,E4_Acc,2024-06-28 15:21:58.758029938,-16.0,-62.0,11.0
1904-01-01 00:37:09.104071938,E4_Acc,2024-06-28 15:21:58.789279938,-16.0,-63.0,11.0
1904-01-01 00:37:09.135321938,E4_Acc,2024-06-28 15:21:58.820529938,-16.0,-62.0,11.0
1904-01-01 00:37:09.166571938,E4_Acc,2024-06-28 15:21:58.851779938,-15.0,-63.0,10.0
1904-01-01 00:37:09.197821938,E4_Acc,2024-06-28 15:21:58.883029938,-14.0,-63.0,10.0
1904-01-01 00:37:09.229071938,E4_Acc,2024-06-28 15:21:58.914279938,-13.0,-63.0,10.0
1904-01-01 00:37:09.260321938,E4_Acc,2024-06-28 15:21:58.945529938,-13.0,-63.0,10.0
1904-01-01 00:37:09.291581951,E4_Acc,2024-06-28 15:21:58.976789951,-13.0,-63.0,10.0
1904-01-01 00:37:09.322831951,E4_Acc,2024-06-28 15:21:59.008039951,-13.0,-62.0,10.0
1904-01-01 00:37:09.354081951,E4_Acc,2024-06-28 15:21:59.039289951,-13.0,-63.0,10.0
1904-01-01 00:37:09.385331951,E4_Acc,2024-06-28 15:21:59.070539951,-14.0,-63.0,10.0
1904-01-01 00:37:09.416581951,E4_Acc,2024-06-28 15:21:59.101789951,-14.0,-63.0,10.0
1904-01-01 00:37:09.447831950,E4_Acc,2024-06-28 15:21:59.133039950,-14.0,-63.0,10.0
1904-01-01 00:37:09.479081951,E4_Acc,2024-06-28 15:21:59.164289951,-14.0,-63.0,9.0
1904-01-01 00:37:09.510341965,E4_Acc,2024-06-28 15:21:59.195549965,-14.0,-62.0,9.0
1904-01-01 00:37:09.541591965,E4_Acc,2024-06-28 15:21:59.226799965,-14.0,-63.0,9.0
1904-01-01 00:37:09.572841965,E4_Acc,2024-06-28 15:21:59.258049965,-14.0,-63.0,9.0
1904-01-01 00:37:09.604091965,E4_Acc,2024-06-28 15:21:59.289299965,-13.0,-63.0,10.0
1904-01-01 00:37:09.635341965,E4_Acc,2024-06-28 15:21:59.320549965,-13.0,-62.0,9.0
1904-01-01 00:37:09.666591965,E4_Acc,2024-06-28 15:21:59.351799965,-13.0,-63.0,10.0
1904-01-01 00:37:09.697841965,E4_Acc,2024-06-28 15:21:59.383049965,-14.0,-63.0,10.0
1904-01-01 00:37:09.729101978,E4_Acc,2024-06-28 15:21:59.414309978,-13.0,-63.0,9.0
1904-01-01 00:37:09.760351978,E4_Acc,2024-06-28 15:21:59.445559978,-13.0,-63.0,10.0
1904-01-01 00:37:09.791601978,E4_Acc,2024-06-28 15:21:59.476809978,-13.0,-64.0,10.0
1904-01-01 00:37:09.822851978,E4_Acc,2024-06-28 15:21:59.508059978,-13.0,-64.0,10.0
1904-01-01 00:37:09.854101978,E4_Acc,2024-06-28 15:21:59.539309978,-14.0,-63.0,10.0
1904-01-01 00:37:09.885351978,E4_Acc,2024-06-28 15:21:59.570559978,-13.0,-62.0,9.0
1904-01-01 00:37:09.916601978,E4_Acc,2024-06-28 15:21:59.601809978,-13.0,-62.0,9.0
1904-01-01 00:37:09.947861992,E4_Acc,2024-06-28 15:21:59.633069992,-13.0,-63.0,9.0
1904-01-01 00:37:09.979111992,E4_Acc,2024-06-28 15:21:59.664319992,-13.0,-63.0,9.0
1904-01-01 00:37:10.010361992,E4_Acc,2024-06-28 15:21:59.695569992,-11.0,-63.0,9.0
1904-01-01 00:37:10.041611992,E4_Acc,2024-06-28 15:21:59.726819992,-11.0,-63.0,9.0
1904-01-01 00:37:10.072861992,E4_Acc,2024-06-28 15:21:59.758069992,-11.0,-63.0,9.0
1904-01-01 00:37:10.104111992,E4_Acc,2024-06-28 15:21:59.789319992,-12.0,-63.0,8.0
1904-01-01 00:37:10.135361992,E4_Acc,2024-06-28 15:21:59.820569992,-12.0,-63.0,9.0
1904-01-01 00:37:10.166622006,E4_Acc,2024-06-28 15:21:59.851830006,-13.0,-63.0,9.0
1904-01-01 00:37:10.197872006,E4_Acc,2024-06-28 15:21:59.883080006,-14.0,-63.0,10.0
1904-01-01 00:37:10.229122006,E4_Acc,2024-06-28 15:21:59.914330006,-14.0,-63.0,10.0
1904-01-01 00:37:10.260372006,E4_Acc,2024-06-28 15:21:59.945580006,-14.0,-63.0,10.0
1904-01-01 00:37:10.291622006,E4_Acc,2024-06-28 15:21:59.976830006,-14.0,-63.0,10.0
1904-01-01 00:37:10.322872006,E4_Acc,2024-06-28 15:22:00.008080006,-14.0,-63.0,10.0
1904-01-01 00:37:10.354132019,E4_Acc,2024-06-28 15:22:00.039340019,-13.0,-62.0,10.0
1904-01-01 00:37:10.385382019,E4_Acc,2024-06-28 15:22:00.070590019,-13.0,-62.0,9.0
1904-01-01 00:37:10.416632019,E4_Acc,2024-06-28 15:22:00.101840019,-13.0,-63.0,9.0
1904-01-01 00:37:10.447882019,E4_Acc,2024-06-28 15:22:00.133090019,-12.0,-63.0,9.0
1904-01-01 00:37:10.479132019,E4_Acc,2024-06-28 15:22:00.164340019,-12.0,-63.0,9.0
1904-01-01 00:37:10.510382019,E4_Acc,2024-06-28 15:22:00.195590019,-12.0,-63.0,9.0
1904-01-01 00:37:10.541632019,E4_Acc,2024-06-28 15:22:00.226840019,-12.0,-63.0,9.0
1904-01-01 00:37:10.572892033,E4_Acc,2024-06-28 15:22:00.258100033,-12.0,-63.0,10.0
1904-01-01 00:37:10.604142033,E4_Acc,2024-06-28 15:22:00.289350033,-12.0,-63.0,10.0
1904-01-01 00:37:10.635392033,E4_Acc,2024-06-28 15:22:00.320600033,-13.0,-62.0,10.0
1904-01-01 00:37:10.666642033,E4_Acc,2024-06-28 15:22:00.351850033,-13.0,-63.0,10.0
1904-01-01 00:37:10.697892033,E4_Acc,2024-06-28 15:22:00.383100033,-14.0,-63.0,10.0
1904-01-01 00:37:10.729142033,E4_Acc,2024-06-28 15:22:00.414350033,-16.0,-61.0,10.0
1904-01-01 00:37:10.760392033,E4_Acc,2024-06-28 15:22:00.445600033,-17.0,-60.0,11.0
1904-01-01 00:37:10.791652046,E4_Acc,2024-06-28 15:22:00.476860046,-17.0,-62.0,11.0
1904-01-01 00:37:10.822902046,E4_Acc,2024-06-28 15:22:00.508110046,-16.0,-64.0,11.0
1904-01-01 00:37:10.854152046,E4_Acc,2024-06-28 15:22:00.539360046,-15.0,-64.0,11.0
1904-01-01 00:37:10.885402046,E4_Acc,2024-06-28 15:22:00.570610046,-12.0,-63.0,10.0
1904-01-01 00:37:10.916652046,E4_Acc,2024-06-28 15:22:00.601860046,-11.0,-63.0,10.0
1904-01-01 00:37:10.947902046,E4_Acc,2024-06-28 15:22:00.633110046,-10.0,-63.0,10.0
1904-01-01 00:37:10.979152046,E4_Acc,2024-06-28 15:22:00.664360046,-10.0,-64.0,9.0
1904-01-01 00:37:11.010412060,E4_Acc,2024-06-28 15:22:00.695620060,-10.0,-63.0,9.0
1904-01-01 00:37:11.041662060,E4_Acc,2024-06-28 15:22:00.726870060,-9.0,-63.0,9.0
1904-01-01 00:37:11.072912060,E4_Acc,2024-06-28 15:22:00.758120060,-9.0,-63.0,10.0
1904-01-01 00:37:11.104162060,E4_Acc,2024-06-28 15:22:00.789370060,-10.0,-62.0,12.0
1904-01-01 00:37:11.135412060,E4_Acc,2024-06-28 15:22:00.820620060,-12.0,-61.0,12.0
1904-01-01 00:37:11.166662060,E4_Acc,2024-06-28 15:22:00.851870060,-14.0,-62.0,11.0
1904-01-01 00:37:11.197912060,E4_Acc,2024-06-28 15:22:00.883120060,-17.0,-62.0,10.0
1904-01-01 00:37:11.229172074,E4_Acc,2024-06-28 15:22:00.914380074,-16.0,-62.0,9.0
1904-01-01 00:37:11.260422074,E4_Acc,2024-06-28 15:22:00.945630074,-16.0,-63.0,10.0
1904-01-01 00:37:11.291672074,E4_Acc,2024-06-28 15:22:00.976880074,-16.0,-63.0,9.0
1904-01-01 00:37:11.322922073,E4_Acc,2024-06-28 15:22:01.008130073,-16.0,-63.0,10.0
1904-01-01 00:37:11.354172074,E4_Acc,2024-06-28 15:22:01.039380074,-16.0,-63.0,10.0
1904-01-01 00:37:11.385422074,E4_Acc,2024-06-28 15:22:01.070630074,-15.0,-63.0,10.0
1904-01-01 00:37:11.416672074,E4_Acc,2024-06-28 15:22:01.101880074,-14.0,-63.0,10.0
1904-01-01 00:37:11.447932086,E4_Acc,2024-06-28 15:22:01.133140086,-12.0,-64.0,10.0
1904-01-01 00:37:11.479182087,E4_Acc,2024-06-28 15:22:01.164390087,-12.0,-64.0,10.0
1904-01-01 00:37:11.510432087,E4_Acc,2024-06-28 15:22:01.195640087,-11.0,-63.0,10.0
1904-01-01 00:37:11.541682087,E4_Acc,2024-06-28 15:22:01.226890087,-11.0,-63.0,10.0
1904-01-01 00:37:11.572932087,E4_Acc,2024-06-28 15:22:01.258140087,-12.0,-63.0,9.0
1904-01-01 00:37:11.604182087,E4_Acc,2024-06-28 15:22:01.289390087,-10.0,-63.0,10.0
1904-01-01 00:37:11.635432087,E4_Acc,2024-06-28 15:22:01.320640087,-10.0,-63.0,10.0
1904-01-01 00:37:11.666692101,E4_Acc,2024-06-28 15:22:01.351900101,-12.0,-63.0,10.0
1904-01-01 00:37:11.697942101,E4_Acc,2024-06-28 15:22:01.383150101,-12.0,-63.0,10.0
1904-01-01 00:37:11.729192101,E4_Acc,2024-06-28 15:22:01.414400101,-13.0,-63.0,10.0
1904-01-01 00:37:11.760442101,E4_Acc,2024-06-28 15:22:01.445650101,-14.0,-62.0,10.0
1904-01-01 00:37:11.791692101,E4_Acc,2024-06-28 15:22:01.476900101,-20.0,-62.0,7.0
1904-01-01 00:37:11.822942101,E4_Acc,2024-06-28 15:22:01.508150101,-29.0,-59.0,5.0
1904-01-01 00:37:11.854192101,E4_Acc,2024-06-28 15:22:01.539400101,-12.0,-62.0,15.0
1904-01-01 00:37:11.885452114,E4_Acc,2024-06-28 15:22:01.570660114,-8.0,-64.0,16.0
1904-01-01 00:37:11.916702114,E4_Acc,2024-06-28 15:22:01.601910114,-3.0,-66.0,17.0
1904-01-01 00:37:11.947952114,E4_Acc,2024-06-28 15:22:01.633160114,-5.0,-65.0,15.0
1904-01-01 00:37:11.979202114,E4_Acc,2024-06-28 15:22:01.664410114,-4.0,-65.0,13.0
1904-01-01 00:37:12.010452114,E4_Acc,2024-06-28 15:22:01.695660114,-3.0,-63.0,12.0
1904-01-01 00:37:12.041702114,E4_Acc,2024-06-28 15:22:01.726910114,-4.0,-62.0,12.0
1904-01-01 00:37:12.072952114,E4_Acc,2024-06-28 15:22:01.758160114,-4.0,-61.0,14.0
1904-01-01 00:37:12.104211889,E4_Acc,2024-06-28 15:22:01.789419889,-4.0,-60.0,15.0
1904-01-01 00:37:12.135461889,E4_Acc,2024-06-28 15:22:01.820669889,-4.0,-60.0,16.0
1904-01-01 00:37:12.166711889,E4_Acc,2024-06-28 15:22:01.851919889,-6.0,-61.0,16.0
1904-01-01 00:37:12.197961889,E4_Acc,2024-06-28 15:22:01.883169889,-8.0,-62.0,16.0
1904-01-01 00:37:12.229211889,E4_Acc,2024-06-28 15:22:01.914419889,-11.0,-63.0,14.0
1904-01-01 00:37:12.260461889,E4_Acc,2024-06-28 15:22:01.945669889,-11.0,-63.0,14.0
1904-01-01 00:37:12.291711889,E4_Acc,2024-06-28 15:22:01.976919889,-10.0,-63.0,15.0
1904-01-01 00:37:12.322971903,E4_Acc,2024-06-28 15:22:02.008179903,-12.0,-63.0,13.0
1904-01-01 00:37:12.354221903,E4_Acc,2024-06-28 15:22:02.039429903,-13.0,-63.0,11.0
1904-01-01 00:37:12.385471903,E4_Acc,2024-06-28 15:22:02.070679903,-15.0,-63.0,10.0
1904-01-01 00:37:12.416721903,E4_Acc,2024-06-28 15:22:02.101929903,-15.0,-63.0,10.0
1904-01-01 00:37:12.447971902,E4_Acc,2024-06-28 15:22:02.133179902,-13.0,-63.0,12.0
1904-01-01 00:37:12.479221903,E4_Acc,2024-06-28 15:22:02.164429903,-13.0,-63.0,12.0
1904-01-01 00:37:12.510471903,E4_Acc,2024-06-28 15:22:02.195679903,-12.0,-62.0,12.0
1904-01-01 00:37:12.541731917,E4_Acc,2024-06-28 15:22:02.226939917,-11.0,-62.0,10.0
1904-01-01 00:37:12.572981917,E4_Acc,2024-06-28 15:22:02.258189917,-17.0,-63.0,8.0
1904-01-01 00:37:12.604231917,E4_Acc,2024-06-28 15:22:02.289439917,-19.0,-61.0,9.0
1904-01-01 00:37:12.635481917,E4_Acc,2024-06-28 15:22:02.320689917,-3.0,-62.0,18.0
1904-01-01 00:37:12.666731917,E4_Acc,2024-06-28 15:22:02.351939917,-3.0,-63.0,20.0
1904-01-01 00:37:12.697981917,E4_Acc,2024-06-28 15:22:02.383189917,-6.0,-63.0,17.0
1904-01-01 00:37:12.729231917,E4_Acc,2024-06-28 15:22:02.414439917,-6.0,-63.0,17.0
1904-01-01 00:37:12.760491930,E4_Acc,2024-06-28 15:22:02.445699930,-10.0,-62.0,15.0
1904-01-01 00:37:12.791741930,E4_Acc,2024-06-28 15:22:02.476949930,-15.0,-61.0,11.0
1904-01-01 00:37:12.822991929,E4_Acc,2024-06-28 15:22:02.508199929,-17.0,-62.0,10.0
1904-01-01 00:37:12.854241930,E4_Acc,2024-06-28 15:22:02.539449930,-17.0,-62.0,10.0
1904-01-01 00:37:12.885491930,E4_Acc,2024-06-28 15:22:02.570699930,-16.0,-62.0,10.0
1904-01-01 00:37:12.916741930,E4_Acc,2024-06-28 15:22:02.601949930,-14.0,-62.0,11.0
1904-01-01 00:37:12.947991930,E4_Acc,2024-06-28 15:22:02.633199930,-14.0,-62.0,12.0
1904-01-01 00:37:12.979251944,E4_Acc,2024-06-28 15:22:02.664459944,-13.0,-62.0,12.0
1904-01-01 00:37:13.010501944,E4_Acc,2024-06-28 15:22:02.695709944,-13.0,-62.0,12.0
1904-01-01 00:37:13.041751944,E4_Acc,2024-06-28 15:22:02.726959944,-13.0,-62.0,12.0
1904-01-01 00:37:13.073001944,E4_Acc,2024-06-28 15:22:02.758209944,-11.0,-63.0,14.0
1904-01-01 00:37:13.104251944,E4_Acc,2024-06-28 15:22:02.789459944,-14.0,-63.0,12.0
1904-01-01 00:37:13.135501944,E4_Acc,2024-06-28 15:22:02.820709944,-12.0,-63.0,12.0
1904-01-01 00:37:13.166761957,E4_Acc,2024-06-28 15:22:02.851969957,-14.0,-63.0,12.0
1904-01-01 00:37:13.198011957,E4_Acc,2024-06-28 15:22:02.883219957,-15.0,-63.0,10.0
1904-01-01 00:37:13.229261957,E4_Acc,2024-06-28 15:22:02.914469957,-15.0,-63.0,9.0
1904-01-01 00:37:13.260511957,E4_Acc,2024-06-28 15:22:02.945719957,-13.0,-63.0,12.0
1904-01-01 00:37:13.291761957,E4_Acc,2024-06-28 15:22:02.976969957,-14.0,-62.0,12.0
1904-01-01 00:37:13.323011957,E4_Acc,2024-06-28 15:22:03.008219957,-14.0,-63.0,12.0
1904-01-01 00:37:13.354261957,E4_Acc,2024-06-28 15:22:03.039469957,-14.0,-64.0,13.0
1904-01-01 00:37:13.385521971,E4_Acc,2024-06-28 15:22:03.070729971,-14.0,-63.0,14.0
1904-01-01 00:37:13.416771971,E4_Acc,2024-06-28 15:22:03.101979971,-14.0,-62.0,13.0
1904-01-01 00:37:13.448021971,E4_Acc,2024-06-28 15:22:03.133229971,-15.0,-62.0,13.0
1904-01-01 00:37:13.479271971,E4_Acc,2024-06-28 15:22:03.164479971,-15.0,-62.0,12.0
1904-01-01 00:37:13.510521971,E4_Acc,2024-06-28 15:22:03.195729971,-15.0,-61.0,10.0
1904-01-01 00:37:13.541771971,E4_Acc,2024-06-28 15:22:03.226979971,-15.0,-62.0,10.0
1904-01-01 00:37:13.573021971,E4_Acc,2024-06-28 15:22:03.258229971,-14.0,-63.0,11.0
1904-01-01 00:37:13.604281985,E4_Acc,2024-06-28 15:22:03.289489985,-14.0,-63.0,11.0
1904-01-01 00:37:13.635531985,E4_Acc,2024-06-28 15:22:03.320739985,-13.0,-63.0,11.0
1904-01-01 00:37:13.666781985,E4_Acc,2024-06-28 15:22:03.351989985,-13.0,-62.0,11.0
1904-01-01 00:37:13.698031985,E4_Acc,2024-06-28 15:22:03.383239985,-13.0,-62.0,12.0
1904-01-01 00:37:13.729281985,E4_Acc,2024-06-28 15:22:03.414489985,-13.0,-61.0,11.0
1904-01-01 00:37:13.760531985,E4_Acc,2024-06-28 15:22:03.445739985,-13.0,-61.0,11.0
1904-01-01 00:37:13.791781985,E4_Acc,2024-06-28 15:22:03.476989985,-13.0,-62.0,11.0
1904-01-01 00:37:13.823041998,E4_Acc,2024-06-28 15:22:03.508249998,-13.0,-63.0,11.0
1904-01-01 00:37:13.854291998,E4_Acc,2024-06-28 15:22:03.539499998,-12.0,-63.0,10.0
1904-01-01 00:37:13.885541998,E4_Acc,2024-06-28 15:22:03.570749998,-12.0,-63.0,11.0
1904-01-01 00:37:13.916791998,E4_Acc,2024-06-28 15:22:03.601999998,-13.0,-62.0,11.0
1904-01-01 00:37:13.948041998,E4_Acc,2024-06-28 15:22:03.633249998,-13.0,-61.0,11.0
1904-01-01 00:37:13.979291998,E4_Acc,2024-06-28 15:22:03.664499998,-13.0,-62.0,12.0
1904-01-01 00:37:14.010541998,E4_Acc,2024-06-28 15:22:03.695749998,-13.0,-62.0,12.0
1904-01-01 00:37:14.041802012,E4_Acc,2024-06-28 15:22:03.727010012,-14.0,-63.0,12.0
1904-01-01 00:37:14.073052012,E4_Acc,2024-06-28 15:22:03.758260012,-14.0,-63.0,12.0
1904-01-01 00:37:14.104302012,E4_Acc,2024-06-28 15:22:03.789510012,-14.0,-62.0,12.0
1904-01-01 00:37:14.135552012,E4_Acc,2024-06-28 15:22:03.820760012,-14.0,-62.0,11.0
1904-01-01 00:37:14.166802012,E4_Acc,2024-06-28 15:22:03.852010012,-14.0,-62.0,11.0
1904-01-01 00:37:14.198052012,E4_Acc,2024-06-28 15:22:03.883260012,-14.0,-62.0,11.0
1904-01-01 00:37:14.229302012,E4_Acc,2024-06-28 15:22:03.914510012,-14.0,-62.0,10.0
1904-01-01 00:37:14.260562025,E4_Acc,2024-06-28 15:22:03.945770025,-13.0,-63.0,11.0
1904-01-01 00:37:14.291812025,E4_Acc,2024-06-28 15:22:03.977020025,-13.0,-63.0,11.0
1904-01-01 00:37:14.323062025,E4_Acc,2024-06-28 15:22:04.008270025,-13.0,-63.0,11.0
1904-01-01 00:37:14.354312025,E4_Acc,2024-06-28 15:22:04.039520025,-12.0,-63.0,12.0
1904-01-01 00:37:14.385562025,E4_Acc,2024-06-28 15:22:04.070770025,-13.0,-62.0,10.0
1904-01-01 00:37:14.416812025,E4_Acc,2024-06-28 15:22:04.102020025,-13.0,-62.0,10.0
1904-01-01 00:37:14.448062024,E4_Acc,2024-06-28 15:22:04.133270024,-13.0,-62.0,10.0
1904-01-01 00:37:14.479322039,E4_Acc,2024-06-28 15:22:04.164530039,-13.0,-62.0,10.0
1904-01-01 00:37:14.510572039,E4_Acc,2024-06-28 15:22:04.195780039,-13.0,-62.0,9.0
1904-01-01 00:37:14.541822039,E4_Acc,2024-06-28 15:22:04.227030039,-13.0,-62.0,10.0
1904-01-01 00:37:14.573072039,E4_Acc,2024-06-28 15:22:04.258280039,-13.0,-62.0,10.0
1904-01-01 00:37:14.604322039,E4_Acc,2024-06-28 15:22:04.289530039,-13.0,-61.0,9.0
1904-01-01 00:37:14.635572039,E4_Acc,2024-06-28 15:22:04.320780039,-14.0,-61.0,10.0
1904-01-01 00:37:14.666822039,E4_Acc,2024-06-28 15:22:04.352030039,-14.0,-62.0,9.0
1904-01-01 00:37:14.698082052,E4_Acc,2024-06-28 15:22:04.383290052,-13.0,-63.0,10.0
1904-01-01 00:37:14.729332052,E4_Acc,2024-06-28 15:22:04.414540052,-13.0,-64.0,11.0
1904-01-01 00:37:14.760582052,E4_Acc,2024-06-28 15:22:04.445790052,-13.0,-65.0,11.0
1904-01-01 00:37:14.791832052,E4_Acc,2024-06-28 15:22:04.477040052,-13.0,-65.0,11.0
1904-01-01 00:37:14.823082052,E4_Acc,2024-06-28 15:22:04.508290052,-12.0,-63.0,10.0
1904-01-01 00:37:14.854332052,E4_Acc,2024-06-28 15:22:04.539540052,-13.0,-63.0,9.0
1904-01-01 00:37:14.885582052,E4_Acc,2024-06-28 15:22:04.570790052,-13.0,-63.0,9.0
1904-01-01 00:37:14.916842066,E4_Acc,2024-06-28 15:22:04.602050066,-13.0,-63.0,9.0
1904-01-01 00:37:14.948092066,E4_Acc,2024-06-28 15:22:04.633300066,-13.0,-63.0,10.0
1904-01-01 00:37:14.979342066,E4_Acc,2024-06-28 15:22:04.664550066,-14.0,-63.0,10.0
1904-01-01 00:37:15.010592066,E4_Acc,2024-06-28 15:22:04.695800066,-13.0,-63.0,10.0
1904-01-01 00:37:15.041842066,E4_Acc,2024-06-28 15:22:04.727050066,-14.0,-62.0,10.0
1904-01-01 00:37:15.073092066,E4_Acc,2024-06-28 15:22:04.758300066,-14.0,-63.0,9.0
1904-01-01 00:37:15.104342066,E4_Acc,2024-06-28 15:22:04.789550066,-16.0,-63.0,9.0
1904-01-01 00:37:15.135602080,E4_Acc,2024-06-28 15:22:04.820810080,-14.0,-63.0,9.0
1904-01-01 00:37:15.166852080,E4_Acc,2024-06-28 15:22:04.852060080,-14.0,-63.0,9.0
1904-01-01 00:37:15.198102080,E4_Acc,2024-06-28 15:22:04.883310080,-14.0,-63.0,9.0
1904-01-01 00:37:15.229352080,E4_Acc,2024-06-28 15:22:04.914560080,-14.0,-63.0,9.0
1904-01-01 00:37:15.260602080,E4_Acc,2024-06-28 15:22:04.945810080,-14.0,-63.0,9.0
1904-01-01 00:37:15.291852080,E4_Acc,2024-06-28 15:22:04.977060080,-14.0,-63.0,9.0
1904-01-01 00:37:15.323102079,E4_Acc,2024-06-28 15:22:05.008310079,-14.0,-63.0,9.0
1904-01-01 00:37:15.354362093,E4_Acc,2024-06-28 15:22:05.039570093,-13.0,-63.0,9.0
1904-01-01 00:37:15.385612093,E4_Acc,2024-06-28 15:22:05.070820093,-13.0,-64.0,9.0
1904-01-01 00:37:15.416862093,E4_Acc,2024-06-28 15:22:05.102070093,-13.0,-64.0,9.0
1904-01-01 00:37:15.448112093,E4_Acc,2024-06-28 15:22:05.133320093,-13.0,-63.0,9.0
1904-01-01 00:37:15.479362093,E4_Acc,2024-06-28 15:22:05.164570093,-13.0,-62.0,8.0
1904-01-01 00:37:15.510612093,E4_Acc,2024-06-28 15:22:05.195820093,-13.0,-63.0,8.0
1904-01-01 00:37:15.541872107,E4_Acc,2024-06-28 15:22:05.227080107,-13.0,-62.0,8.0
1904-01-01 00:37:15.573122106,E4_Acc,2024-06-28 15:22:05.258330106,-14.0,-63.0,7.0
1904-01-01 00:37:15.604372107,E4_Acc,2024-06-28 15:22:05.289580107,-13.0,-63.0,9.0
1904-01-01 00:37:15.635622107,E4_Acc,2024-06-28 15:22:05.320830107,-14.0,-64.0,9.0
1904-01-01 00:37:15.666872107,E4_Acc,2024-06-28 15:22:05.352080107,-13.0,-63.0,10.0
1904-01-01 00:37:15.698122107,E4_Acc,2024-06-28 15:22:05.383330107,-13.0,-63.0,10.0
1904-01-01 00:37:15.729372107,E4_Acc,2024-06-28 15:22:05.414580107,-13.0,-63.0,9.0
1904-01-01 00:37:15.760631882,E4_Acc,2024-06-28 15:22:05.445839882,-14.0,-62.0,10.0
1904-01-01 00:37:15.791881882,E4_Acc,2024-06-28 15:22:05.477089882,-14.0,-62.0,9.0
1904-01-01 00:37:15.823131882,E4_Acc,2024-06-28 15:22:05.508339882,-14.0,-62.0,9.0
1904-01-01 00:37:15.854381882,E4_Acc,2024-06-28 15:22:05.539589882,-14.0,-63.0,9.0
1904-01-01 00:37:15.885631882,E4_Acc,2024-06-28 15:22:05.570839882,-14.0,-63.0,9.0
1904-01-01 00:37:15.916881882,E4_Acc,2024-06-28 15:22:05.602089882,-14.0,-63.0,9.0
1904-01-01 00:37:15.948131882,E4_Acc,2024-06-28 15:22:05.633339882,-13.0,-63.0,9.0
1904-01-01 00:37:15.979391895,E4_Acc,2024-06-28 15:22:05.664599895,-13.0,-63.0,9.0
1904-01-01 00:37:16.010641895,E4_Acc,2024-06-28 15:22:05.695849895,-12.0,-63.0,9.0
1904-01-01 00:37:16.041891895,E4_Acc,2024-06-28 15:22:05.727099895,-12.0,-63.0,9.0
1904-01-01 00:37:16.073141895,E4_Acc,2024-06-28 15:22:05.758349895,-12.0,-63.0,9.0
1904-01-01 00:37:16.104391895,E4_Acc,2024-06-28 15:22:05.789599895,-14.0,-62.0,10.0
1904-01-01 00:37:16.135641895,E4_Acc,2024-06-28 15:22:05.820849895,-13.0,-63.0,9.0
1904-01-01 00:37:16.166891895,E4_Acc,2024-06-28 15:22:05.852099895,-14.0,-63.0,9.0
1904-01-01 00:37:16.198151909,E4_Acc,2024-06-28 15:22:05.883359909,-14.0,-62.0,10.0
1904-01-01 00:37:16.229401909,E4_Acc,2024-06-28 15:22:05.914609909,-14.0,-63.0,10.0
1904-01-01 00:37:16.260651909,E4_Acc,2024-06-28 15:22:05.945859909,-14.0,-63.0,10.0
1904-01-01 00:37:16.291901909,E4_Acc,2024-06-28 15:22:05.977109909,-14.0,-63.0,9.0
1904-01-01 00:37:16.323151909,E4_Acc,2024-06-28 15:22:06.008359909,-14.0,-62.0,9.0
1904-01-01 00:37:16.354401909,E4_Acc,2024-06-28 15:22:06.039609909,-14.0,-62.0,9.0
1904-01-01 00:37:16.385651909,E4_Acc,2024-06-28 15:22:06.070859909,-14.0,-62.0,9.0
1904-01-01 00:37:16.416911923,E4_Acc,2024-06-28 15:22:06.102119923,-14.0,-63.0,10.0
1904-01-01 00:37:16.448161923,E4_Acc,2024-06-28 15:22:06.133369923,-14.0,-63.0,10.0
1904-01-01 00:37:16.479411923,E4_Acc,2024-06-28 15:22:06.164619923,-14.0,-63.0,9.0
1904-01-01 00:37:16.510661923,E4_Acc,2024-06-28 15:22:06.195869923,-14.0,-63.0,9.0
1904-01-01 00:37:16.541911923,E4_Acc,2024-06-28 15:22:06.227119923,-14.0,-62.0,8.0
1904-01-01 00:37:16.573161923,E4_Acc,2024-06-28 15:22:06.258369923,-13.0,-62.0,8.0
1904-01-01 00:37:16.604411923,E4_Acc,2024-06-28 15:22:06.289619923,-14.0,-62.0,9.0
1904-01-01 00:37:16.635671936,E4_Acc,2024-06-28 15:22:06.320879936,-13.0,-62.0,9.0
1904-01-01 00:37:16.666921936,E4_Acc,2024-06-28 15:22:06.352129936,-14.0,-62.0,9.0
1904-01-01 00:37:16.698171936,E4_Acc,2024-06-28 15:22:06.383379936,-15.0,-63.0,10.0
1904-01-01 00:37:16.729421936,E4_Acc,2024-06-28 15:22:06.414629936,-14.0,-62.0,9.0
1904-01-01 00:37:16.760671936,E4_Acc,2024-06-28 15:22:06.445879936,-14.0,-62.0,8.0
1904-01-01 00:37:16.791921936,E4_Acc,2024-06-28 15:22:06.477129936,-14.0,-63.0,8.0
1904-01-01 00:37:16.823171936,E4_Acc,2024-06-28 15:22:06.508379936,-14.0,-64.0,9.0
1904-01-01 00:37:16.854431950,E4_Acc,2024-06-28 15:22:06.539639950,-14.0,-63.0,9.0
1904-01-01 00:37:16.885681950,E4_Acc,2024-06-28 15:22:06.570889950,-13.0,-62.0,9.0
1904-01-01 00:37:16.916931950,E4_Acc,2024-06-28 15:22:06.602139950,-13.0,-62.0,10.0
1904-01-01 00:37:16.948181950,E4_Acc,2024-06-28 15:22:06.633389950,-14.0,-62.0,10.0
1904-01-01 00:37:16.979431950,E4_Acc,2024-06-28 15:22:06.664639950,-15.0,-63.0,10.0
1904-01-01 00:37:17.010681950,E4_Acc,2024-06-28 15:22:06.695889950,-15.0,-63.0,10.0
1904-01-01 00:37:17.041931950,E4_Acc,2024-06-28 15:22:06.727139950,-15.0,-63.0,10.0
1904-01-01 00:37:17.073191963,E4_Acc,2024-06-28 15:22:06.758399963,-15.0,-63.0,10.0
1904-01-01 00:37:17.104441963,E4_Acc,2024-06-28 15:22:06.789649963,-13.0,-63.0,9.0
1904-01-01 00:37:17.135691963,E4_Acc,2024-06-28 15:22:06.820899963,-13.0,-62.0,9.0
1904-01-01 00:37:17.166941963,E4_Acc,2024-06-28 15:22:06.852149963,-12.0,-62.0,9.0
1904-01-01 00:37:17.198191963,E4_Acc,2024-06-28 15:22:06.883399963,-12.0,-63.0,9.0
1904-01-01 00:37:17.229441963,E4_Acc,2024-06-28 15:22:06.914649963,-13.0,-63.0,8.0
1904-01-01 00:37:17.260691963,E4_Acc,2024-06-28 15:22:06.945899963,-13.0,-63.0,9.0
1904-01-01 00:37:17.291951977,E4_Acc,2024-06-28 15:22:06.977159977,-13.0,-63.0,9.0
1904-01-01 00:37:17.323201977,E4_Acc,2024-06-28 15:22:07.008409977,-14.0,-63.0,9.0
1904-01-01 00:37:17.354451977,E4_Acc,2024-06-28 15:22:07.039659977,-14.0,-62.0,9.0
1904-01-01 00:37:17.385701977,E4_Acc,2024-06-28 15:22:07.070909977,-14.0,-62.0,8.0
1904-01-01 00:37:17.416951977,E4_Acc,2024-06-28 15:22:07.102159977,-14.0,-63.0,10.0
1904-01-01 00:37:17.448201977,E4_Acc,2024-06-28 15:22:07.133409977,-14.0,-63.0,9.0
1904-01-01 00:37:17.479451977,E4_Acc,2024-06-28 15:22:07.164659977,-14.0,-63.0,9.0
1904-01-01 00:37:17.510711991,E4_Acc,2024-06-28 15:22:07.195919991,-14.0,-63.0,10.0
1904-01-01 00:37:17.541961991,E4_Acc,2024-06-28 15:22:07.227169991,-13.0,-64.0,9.0
1904-01-01 00:37:17.573211991,E4_Acc,2024-06-28 15:22:07.258419991,-13.0,-63.0,9.0
1904-01-01 00:37:17.604461991,E4_Acc,2024-06-28 15:22:07.289669991,-14.0,-62.0,8.0
1904-01-01 00:37:17.635711991,E4_Acc,2024-06-28 15:22:07.320919991,-14.0,-63.0,8.0
1904-01-01 00:37:17.666961991,E4_Acc,2024-06-28 15:22:07.352169991,-14.0,-63.0,8.0
1904-01-01 00:37:17.698222004,E4_Acc,2024-06-28 15:22:07.383430004,-14.0,-62.0,8.0
1904-01-01 00:37:17.729472004,E4_Acc,2024-06-28 15:22:07.414680004,-14.0,-62.0,9.0
1904-01-01 00:37:17.760722004,E4_Acc,2024-06-28 15:22:07.445930004,-14.0,-62.0,9.0
1904-01-01 00:37:17.791972004,E4_Acc,2024-06-28 15:22:07.477180004,-13.0,-63.0,8.0
1904-01-01 00:37:17.823222004,E4_Acc,2024-06-28 15:22:07.508430004,-14.0,-63.0,9.0
1904-01-01 00:37:17.854472004,E4_Acc,2024-06-28 15:22:07.539680004,-13.0,-64.0,10.0
1904-01-01 00:37:17.885722004,E4_Acc,2024-06-28 15:22:07.570930004,-12.0,-64.0,10.0
1904-01-01 00:37:17.916982018,E4_Acc,2024-06-28 15:22:07.602190018,-12.0,-63.0,9.0
1904-01-01 00:37:17.948232018,E4_Acc,2024-06-28 15:22:07.633440018,-12.0,-63.0,9.0
1904-01-01 00:37:17.979482018,E4_Acc,2024-06-28 15:22:07.664690018,-12.0,-63.0,8.0
1904-01-01 00:37:18.010732018,E4_Acc,2024-06-28 15:22:07.695940018,-12.0,-63.0,8.0
1904-01-01 00:37:18.041982018,E4_Acc,2024-06-28 15:22:07.727190018,-12.0,-63.0,8.0
1904-01-01 00:37:18.073232018,E4_Acc,2024-06-28 15:22:07.758440018,-12.0,-62.0,8.0
1904-01-01 00:37:18.104482018,E4_Acc,2024-06-28 15:22:07.789690018,-12.0,-63.0,8.0
1904-01-01 00:37:18.135742031,E4_Acc,2024-06-28 15:22:07.820950031,-13.0,-64.0,8.0
1904-01-01 00:37:18.166992031,E4_Acc,2024-06-28 15:22:07.852200031,-13.0,-63.0,8.0
1904-01-01 00:37:18.198242031,E4_Acc,2024-06-28 15:22:07.883450031,-13.0,-64.0,8.0
1904-01-01 00:37:18.229492031,E4_Acc,2024-06-28 15:22:07.914700031,-13.0,-64.0,10.0
1904-01-01 00:37:18.260742031,E4_Acc,2024-06-28 15:22:07.945950031,-12.0,-63.0,11.0
1904-01-01 00:37:18.291992031,E4_Acc,2024-06-28 15:22:07.977200031,-13.0,-61.0,10.0
1904-01-01 00:37:18.323242031,E4_Acc,2024-06-28 15:22:08.008450031,-13.0,-61.0,9.0
1904-01-01 00:37:18.354502045,E4_Acc,2024-06-28 15:22:08.039710045,-14.0,-62.0,9.0
1904-01-01 00:37:18.385752045,E4_Acc,2024-06-28 15:22:08.070960045,-15.0,-64.0,9.0
1904-01-01 00:37:18.417002045,E4_Acc,2024-06-28 15:22:08.102210045,-14.0,-64.0,10.0
1904-01-01 00:37:18.448252045,E4_Acc,2024-06-28 15:22:08.133460045,-14.0,-64.0,10.0
1904-01-01 00:37:18.479502045,E4_Acc,2024-06-28 15:22:08.164710045,-13.0,-62.0,9.0
1904-01-01 00:37:18.510752045,E4_Acc,2024-06-28 15:22:08.195960045,-13.0,-61.0,9.0
1904-01-01 00:37:18.542002045,E4_Acc,2024-06-28 15:22:08.227210045,-14.0,-62.0,8.0
1904-01-01 00:37:18.573262058,E4_Acc,2024-06-28 15:22:08.258470058,-15.0,-63.0,9.0
1904-01-01 00:37:18.604512058,E4_Acc,2024-06-28 15:22:08.289720058,-15.0,-63.0,9.0
1904-01-01 00:37:18.635762058,E4_Acc,2024-06-28 15:22:08.320970058,-14.0,-63.0,9.0
1904-01-01 00:37:18.667012058,E4_Acc,2024-06-28 15:22:08.352220058,-14.0,-62.0,10.0
1904-01-01 00:37:18.698262058,E4_Acc,2024-06-28 15:22:08.383470058,-14.0,-62.0,9.0
1904-01-01 00:37:18.729512058,E4_Acc,2024-06-28 15:22:08.414720058,-13.0,-63.0,10.0
1904-01-01 00:37:18.760762058,E4_Acc,2024-06-28 15:22:08.445970058,-13.0,-63.0,9.0
1904-01-01 00:37:18.792022072,E4_Acc,2024-06-28 15:22:08.477230072,-13.0,-62.0,10.0
1904-01-01 00:37:18.823272072,E4_Acc,2024-06-28 15:22:08.508480072,-12.0,-63.0,10.0
1904-01-01 00:37:18.854522072,E4_Acc,2024-06-28 15:22:08.539730072,-12.0,-62.0,10.0
1904-01-01 00:37:18.885772072,E4_Acc,2024-06-28 15:22:08.570980072,-13.0,-62.0,10.0
1904-01-01 00:37:18.917022072,E4_Acc,2024-06-28 15:22:08.602230072,-14.0,-63.0,9.0
1904-01-01 00:37:18.948272072,E4_Acc,2024-06-28 15:22:08.633480072,-15.0,-63.0,9.0
1904-01-01 00:37:18.979522072,E4_Acc,2024-06-28 15:22:08.664730072,-15.0,-63.0,9.0
1904-01-01 00:37:19.010782086,E4_Acc,2024-06-28 15:22:08.695990086,-15.0,-63.0,10.0
1904-01-01 00:37:19.042032086,E4_Acc,2024-06-28 15:22:08.727240086,-14.0,-62.0,10.0
1904-01-01 00:37:19.073282086,E4_Acc,2024-06-28 15:22:08.758490086,-14.0,-62.0,9.0
1904-01-01 00:37:19.104532086,E4_Acc,2024-06-28 15:22:08.789740086,-14.0,-62.0,10.0
1904-01-01 00:37:19.135782086,E4_Acc,2024-06-28 15:22:08.820990086,-13.0,-62.0,10.0
1904-01-01 00:37:19.167032086,E4_Acc,2024-06-28 15:22:08.852240086,-14.0,-62.0,10.0
1904-01-01 00:37:19.198282086,E4_Acc,2024-06-28 15:22:08.883490086,-14.0,-62.0,10.0
1904-01-01 00:37:19.229542099,E4_Acc,2024-06-28 15:22:08.914750099,-14.0,-63.0,10.0
1904-01-01 00:37:19.260792099,E4_Acc,2024-06-28 15:22:08.946000099,-14.0,-63.0,10.0
1904-01-01 00:37:19.292042099,E4_Acc,2024-06-28 15:22:08.977250099,-15.0,-63.0,10.0
1904-01-01 00:37:19.323292099,E4_Acc,2024-06-28 15:22:09.008500099,-15.0,-62.0,11.0
1904-01-01 00:37:19.354542099,E4_Acc,2024-06-28 15:22:09.039750099,-15.0,-62.0,10.0
1904-01-01 00:37:19.385792099,E4_Acc,2024-06-28 15:22:09.071000099,-15.0,-62.0,10.0
1904-01-01 00:37:19.417042099,E4_Acc,2024-06-28 15:22:09.102250099,-15.0,-62.0,10.0
1904-01-01 00:37:19.448302113,E4_Acc,2024-06-28 15:22:09.133510113,-16.0,-63.0,11.0
1904-01-01 00:37:19.479552113,E4_Acc,2024-06-28 15:22:09.164760113,-16.0,-63.0,10.0
1904-01-01 00:37:19.510802113,E4_Acc,2024-06-28 15:22:09.196010113,-15.0,-63.0,10.0
1904-01-01 00:37:19.542052113,E4_Acc,2024-06-28 15:22:09.227260113,-15.0,-63.0,10.0
1904-01-01 00:37:19.573302113,E4_Acc,2024-06-28 15:22:09.258510113,-14.0,-63.0,10.0
1904-01-01 00:37:19.604552113,E4_Acc,2024-06-28 15:22:09.289760113,-14.0,-62.0,10.0
1904-01-01 00:37:19.635802113,E4_Acc,2024-06-28 15:22:09.321010113,-14.0,-62.0,9.0
1904-01-01 00:37:19.667061888,E4_Acc,2024-06-28 15:22:09.352269888,-14.0,-62.0,9.0
1904-01-01 00:37:19.698311888,E4_Acc,2024-06-28 15:22:09.383519888,-14.0,-62.0,9.0
1904-01-01 00:37:19.729561888,E4_Acc,2024-06-28 15:22:09.414769888,-14.0,-62.0,10.0
1904-01-01 00:37:19.760811888,E4_Acc,2024-06-28 15:22:09.446019888,-14.0,-62.0,9.0
1904-01-01 00:37:19.792061888,E4_Acc,2024-06-28 15:22:09.477269888,-14.0,-62.0,9.0
1904-01-01 00:37:19.823311888,E4_Acc,2024-06-28 15:22:09.508519888,-14.0,-62.0,10.0
1904-01-01 00:37:19.854561888,E4_Acc,2024-06-28 15:22:09.539769888,-15.0,-63.0,10.0
1904-01-01 00:37:19.885821902,E4_Acc,2024-06-28 15:22:09.571029902,-14.0,-62.0,9.0
1904-01-01 00:37:19.917071902,E4_Acc,2024-06-28 15:22:09.602279902,-14.0,-62.0,10.0
1904-01-01 00:37:19.948321902,E4_Acc,2024-06-28 15:22:09.633529902,-15.0,-63.0,10.0
1904-01-01 00:37:19.979571902,E4_Acc,2024-06-28 15:22:09.664779902,-15.0,-64.0,10.0
1904-01-01 00:37:20.010821902,E4_Acc,2024-06-28 15:22:09.696029902,-15.0,-65.0,10.0
1904-01-01 00:37:20.042071902,E4_Acc,2024-06-28 15:22:09.727279902,-15.0,-63.0,10.0
1904-01-01 00:37:20.073321902,E4_Acc,2024-06-28 15:22:09.758529902,-14.0,-62.0,10.0
1904-01-01 00:37:20.104581915,E4_Acc,2024-06-28 15:22:09.789789915,-14.0,-62.0,9.0
1904-01-01 00:37:20.135831915,E4_Acc,2024-06-28 15:22:09.821039915,-13.0,-62.0,9.0
1904-01-01 00:37:20.167081915,E4_Acc,2024-06-28 15:22:09.852289915,-13.0,-63.0,9.0
1904-01-01 00:37:20.198331915,E4_Acc,2024-06-28 15:22:09.883539915,-14.0,-63.0,10.0
1904-01-01 00:37:20.229581915,E4_Acc,2024-06-28 15:22:09.914789915,-15.0,-61.0,9.0
1904-01-01 00:37:20.260831915,E4_Acc,2024-06-28 15:22:09.946039915,-15.0,-62.0,9.0
1904-01-01 00:37:20.292081915,E4_Acc,2024-06-28 15:22:09.977289915,-16.0,-63.0,9.0
1904-01-01 00:37:20.323341929,E4_Acc,2024-06-28 15:22:10.008549929,-15.0,-63.0,10.0
1904-01-01 00:37:20.354591929,E4_Acc,2024-06-28 15:22:10.039799929,-14.0,-63.0,9.0
1904-01-01 00:37:20.385841929,E4_Acc,2024-06-28 15:22:10.071049929,-15.0,-63.0,9.0
1904-01-01 00:37:20.417091929,E4_Acc,2024-06-28 15:22:10.102299929,-15.0,-63.0,9.0
1904-01-01 00:37:20.448341929,E4_Acc,2024-06-28 15:22:10.133549929,-16.0,-62.0,9.0
1904-01-01 00:37:20.479591929,E4_Acc,2024-06-28 15:22:10.164799929,-16.0,-63.0,10.0
1904-01-01 00:37:20.510851942,E4_Acc,2024-06-28 15:22:10.196059942,-16.0,-63.0,10.0
1904-01-01 00:37:20.542101942,E4_Acc,2024-06-28 15:22:10.227309942,-15.0,-62.0,10.0
1904-01-01 00:37:20.573351942,E4_Acc,2024-06-28 15:22:10.258559942,-14.0,-61.0,9.0
1904-01-01 00:37:20.604601942,E4_Acc,2024-06-28 15:22:10.289809942,-14.0,-61.0,9.0
1904-01-01 00:37:20.635851942,E4_Acc,2024-06-28 15:22:10.321059942,-14.0,-62.0,9.0
1904-01-01 00:37:20.667101942,E4_Acc,2024-06-28 15:22:10.352309942,-14.0,-63.0,9.0
1904-01-01 00:37:20.698351942,E4_Acc,2024-06-28 15:22:10.383559942,-14.0,-63.0,9.0
1904-01-01 00:37:20.729611956,E4_Acc,2024-06-28 15:22:10.414819956,-13.0,-63.0,9.0
1904-01-01 00:37:20.760861956,E4_Acc,2024-06-28 15:22:10.446069956,-14.0,-62.0,8.0
1904-01-01 00:37:20.792111956,E4_Acc,2024-06-28 15:22:10.477319956,-14.0,-62.0,8.0
1904-01-01 00:37:20.823361956,E4_Acc,2024-06-28 15:22:10.508569956,-14.0,-62.0,8.0
1904-01-01 00:37:20.854611956,E4_Acc,2024-06-28 15:22:10.539819956,-14.0,-63.0,8.0
1904-01-01 00:37:20.885861956,E4_Acc,2024-06-28 15:22:10.571069956,-14.0,-63.0,8.0
1904-01-01 00:37:20.917111956,E4_Acc,2024-06-28 15:22:10.602319956,-13.0,-63.0,9.0
1904-01-01 00:37:20.948371969,E4_Acc,2024-06-28 15:22:10.633579969,-13.0,-62.0,8.0
1904-01-01 00:37:20.979621969,E4_Acc,2024-06-28 15:22:10.664829969,-13.0,-64.0,10.0
1904-01-01 00:37:21.010871969,E4_Acc,2024-06-28 15:22:10.696079969,-12.0,-63.0,9.0
1904-01-01 00:37:21.042121969,E4_Acc,2024-06-28 15:22:10.727329969,-12.0,-63.0,9.0
1904-01-01 00:37:21.073371969,E4_Acc,2024-06-28 15:22:10.758579969,-13.0,-63.0,9.0
1904-01-01 00:37:21.104621969,E4_Acc,2024-06-28 15:22:10.789829969,-13.0,-64.0,9.0
1904-01-01 00:37:21.135871969,E4_Acc,2024-06-28 15:22:10.821079969,-14.0,-64.0,9.0
1904-01-01 00:37:21.167131983,E4_Acc,2024-06-28 15:22:10.852339983,-14.0,-64.0,9.0
1904-01-01 00:37:21.198381983,E4_Acc,2024-06-28 15:22:10.883589983,-15.0,-63.0,9.0
1904-01-01 00:37:21.229631983,E4_Acc,2024-06-28 15:22:10.914839983,-15.0,-63.0,10.0
1904-01-01 00:37:21.260881983,E4_Acc,2024-06-28 15:22:10.946089983,-15.0,-62.0,10.0
1904-01-01 00:37:21.292131983,E4_Acc,2024-06-28 15:22:10.977339983,-16.0,-63.0,10.0
1904-01-01 00:37:21.323381983,E4_Acc,2024-06-28 15:22:11.008589983,-16.0,-62.0,10.0
1904-01-01 00:37:21.354631983,E4_Acc,2024-06-28 15:22:11.039839983,-15.0,-61.0,9.0
1904-01-01 00:37:21.385891997,E4_Acc,2024-06-28 15:22:11.071099997,-16.0,-61.0,9.0
1904-01-01 00:37:21.417141997,E4_Acc,2024-06-28 15:22:11.102349997,-16.0,-62.0,9.0
1904-01-01 00:37:21.448391997,E4_Acc,2024-06-28 15:22:11.133599997,-15.0,-62.0,9.0
1904-01-01 00:37:21.479641997,E4_Acc,2024-06-28 15:22:11.164849997,-15.0,-62.0,9.0
1904-01-01 00:37:21.510891997,E4_Acc,2024-06-28 15:22:11.196099997,-15.0,-63.0,10.0
1904-01-01 00:37:21.542141997,E4_Acc,2024-06-28 15:22:11.227349997,-13.0,-62.0,9.0
1904-01-01 00:37:21.573391997,E4_Acc,2024-06-28 15:22:11.258599997,-13.0,-62.0,9.0
1904-01-01 00:37:21.604652010,E4_Acc,2024-06-28 15:22:11.289860010,-13.0,-63.0,9.0
1904-01-01 00:37:21.635902010,E4_Acc,2024-06-28 15:22:11.321110010,-13.0,-63.0,8.0
1904-01-01 00:37:21.667152010,E4_Acc,2024-06-28 15:22:11.352360010,-14.0,-64.0,8.0
1904-01-01 00:37:21.698402010,E4_Acc,2024-06-28 15:22:11.383610010,-14.0,-64.0,9.0
1904-01-01 00:37:21.729652010,E4_Acc,2024-06-28 15:22:11.414860010,-15.0,-63.0,10.0
1904-01-01 00:37:21.760902010,E4_Acc,2024-06-28 15:22:11.446110010,-14.0,-64.0,11.0
1904-01-01 00:37:21.792152010,E4_Acc,2024-06-28 15:22:11.477360010,-14.0,-63.0,11.0
1904-01-01 00:37:21.823412023,E4_Acc,2024-06-28 15:22:11.508620023,-14.0,-62.0,10.0
1904-01-01 00:37:21.854662024,E4_Acc,2024-06-28 15:22:11.539870024,-14.0,-61.0,10.0
1904-01-01 00:37:21.885912024,E4_Acc,2024-06-28 15:22:11.571120024,-14.0,-62.0,9.0
1904-01-01 00:37:21.917162024,E4_Acc,2024-06-28 15:22:11.602370024,-15.0,-63.0,8.0
1904-01-01 00:37:21.948412024,E4_Acc,2024-06-28 15:22:11.633620024,-15.0,-64.0,9.0
1904-01-01 00:37:21.979662024,E4_Acc,2024-06-28 15:22:11.664870024,-15.0,-63.0,9.0
1904-01-01 00:37:22.010912024,E4_Acc,2024-06-28 15:22:11.696120024,-15.0,-62.0,9.0
1904-01-01 00:37:22.042172037,E4_Acc,2024-06-28 15:22:11.727380037,-15.0,-63.0,9.0
1904-01-01 00:37:22.073422037,E4_Acc,2024-06-28 15:22:11.758630037,-15.0,-62.0,9.0
1904-01-01 00:37:22.104672037,E4_Acc,2024-06-28 15:22:11.789880037,-16.0,-62.0,9.0
1904-01-01 00:37:22.135922037,E4_Acc,2024-06-28 15:22:11.821130037,-16.0,-62.0,10.0
1904-01-01 00:37:22.167172037,E4_Acc,2024-06-28 15:22:11.852380037,-15.0,-63.0,10.0
1904-01-01 00:37:22.198422037,E4_Acc,2024-06-28 15:22:11.883630037,-15.0,-63.0,10.0
1904-01-01 00:37:22.229672037,E4_Acc,2024-06-28 15:22:11.914880037,-15.0,-63.0,10.0
1904-01-01 00:37:22.260932051,E4_Acc,2024-06-28 15:22:11.946140051,-15.0,-62.0,10.0
1904-01-01 00:37:22.292182051,E4_Acc,2024-06-28 15:22:11.977390051,-15.0,-62.0,10.0
1904-01-01 00:37:22.323432051,E4_Acc,2024-06-28 15:22:12.008640051,-15.0,-63.0,10.0
1904-01-01 00:37:22.354682051,E4_Acc,2024-06-28 15:22:12.039890051,-14.0,-63.0,11.0
1904-01-01 00:37:22.385932051,E4_Acc,2024-06-28 15:22:12.071140051,-14.0,-63.0,10.0
1904-01-01 00:37:22.417182051,E4_Acc,2024-06-28 15:22:12.102390051,-14.0,-63.0,10.0
1904-01-01 00:37:22.448432051,E4_Acc,2024-06-28 15:22:12.133640051,-14.0,-63.0,9.0
1904-01-01 00:37:22.479692064,E4_Acc,2024-06-28 15:22:12.164900064,-13.0,-61.0,8.0
1904-01-01 00:37:22.510942064,E4_Acc,2024-06-28 15:22:12.196150064,-14.0,-61.0,8.0
1904-01-01 00:37:22.542192064,E4_Acc,2024-06-28 15:22:12.227400064,-14.0,-61.0,9.0
1904-01-01 00:37:22.573442064,E4_Acc,2024-06-28 15:22:12.258650064,-14.0,-62.0,9.0
1904-01-01 00:37:22.604692064,E4_Acc,2024-06-28 15:22:12.289900064,-14.0,-63.0,9.0
1904-01-01 00:37:22.635942064,E4_Acc,2024-06-28 15:22:12.321150064,-14.0,-63.0,9.0
1904-01-01 00:37:22.667202078,E4_Acc,2024-06-28 15:22:12.352410078,-13.0,-63.0,11.0
1904-01-01 00:37:22.698452078,E4_Acc,2024-06-28 15:22:12.383660078,-13.0,-63.0,10.0
1904-01-01 00:37:22.729702078,E4_Acc,2024-06-28 15:22:12.414910078,-13.0,-63.0,10.0
1904-01-01 00:37:22.760952078,E4_Acc,2024-06-28 15:22:12.446160078,-13.0,-63.0,10.0
1904-01-01 00:37:22.792202078,E4_Acc,2024-06-28 15:22:12.477410078,-13.0,-63.0,10.0
1904-01-01 00:37:22.823452078,E4_Acc,2024-06-28 15:22:12.508660078,-14.0,-63.0,9.0
1904-01-01 00:37:22.854702078,E4_Acc,2024-06-28 15:22:12.539910078,-15.0,-63.0,9.0
1904-01-01 00:37:22.885962092,E4_Acc,2024-06-28 15:22:12.571170092,-14.0,-63.0,10.0
1904-01-01 00:37:22.917212092,E4_Acc,2024-06-28 15:22:12.602420092,-14.0,-63.0,10.0
1904-01-01 00:37:22.948462092,E4_Acc,2024-06-28 15:22:12.633670092,-15.0,-62.0,10.0
1904-01-01 00:37:22.979712092,E4_Acc,2024-06-28 15:22:12.664920092,-15.0,-62.0,11.0
1904-01-01 00:37:23.010962092,E4_Acc,2024-06-28 15:22:12.696170092,-15.0,-62.0,11.0
1904-01-01 00:37:23.042212092,E4_Acc,2024-06-28 15:22:12.727420092,-16.0,-63.0,11.0
1904-01-01 00:37:23.073462092,E4_Acc,2024-06-28 15:22:12.758670092,-16.0,-62.0,11.0
1904-01-01 00:37:23.104722105,E4_Acc,2024-06-28 15:22:12.789930105,-16.0,-62.0,11.0
1904-01-01 00:37:23.135972105,E4_Acc,2024-06-28 15:22:12.821180105,-16.0,-63.0,11.0
1904-01-01 00:37:23.167222105,E4_Acc,2024-06-28 15:22:12.852430105,-16.0,-62.0,12.0
1904-01-01 00:37:23.198472105,E4_Acc,2024-06-28 15:22:12.883680105,-16.0,-61.0,11.0
1904-01-01 00:37:23.229722105,E4_Acc,2024-06-28 15:22:12.914930105,-16.0,-61.0,12.0
1904-01-01 00:37:23.260972105,E4_Acc,2024-06-28 15:22:12.946180105,-15.0,-62.0,12.0
1904-01-01 00:37:23.292222105,E4_Acc,2024-06-28 15:22:12.977430105,-16.0,-62.0,12.0
1904-01-01 00:37:23.323482119,E4_Acc,2024-06-28 15:22:13.008690119,-16.0,-62.0,12.0
1904-01-01 00:37:23.354732119,E4_Acc,2024-06-28 15:22:13.039940119,-15.0,-62.0,10.0
1904-01-01 00:37:23.385982119,E4_Acc,2024-06-28 15:22:13.071190119,-16.0,-61.0,10.0
1904-01-01 00:37:23.417232119,E4_Acc,2024-06-28 15:22:13.102440119,-16.0,-63.0,10.0
1904-01-01 00:37:23.448482119,E4_Acc,2024-06-28 15:22:13.133690119,-16.0,-64.0,11.0
1904-01-01 00:37:23.479732119,E4_Acc,2024-06-28 15:22:13.164940119,-15.0,-64.0,10.0
1904-01-01 00:37:23.510982119,E4_Acc,2024-06-28 15:22:13.196190119,-15.0,-62.0,11.0
1904-01-01 00:37:23.542241894,E4_Acc,2024-06-28 15:22:13.227449894,-14.0,-61.0,10.0
1904-01-01 00:37:23.573491894,E4_Acc,2024-06-28 15:22:13.258699894,-14.0,-60.0,10.0
1904-01-01 00:37:23.604741894,E4_Acc,2024-06-28 15:22:13.289949894,-14.0,-61.0,11.0
1904-01-01 00:37:23.635991894,E4_Acc,2024-06-28 15:22:13.321199894,-14.0,-62.0,11.0
1904-01-01 00:37:23.667241894,E4_Acc,2024-06-28 15:22:13.352449894,-14.0,-64.0,12.0
1904-01-01 00:37:23.698491894,E4_Acc,2024-06-28 15:22:13.383699894,-14.0,-63.0,11.0
1904-01-01 00:37:23.729741894,E4_Acc,2024-06-28 15:22:13.414949894,-14.0,-63.0,11.0
1904-01-01 00:37:23.761001908,E4_Acc,2024-06-28 15:22:13.446209908,-15.0,-62.0,12.0
1904-01-01 00:37:23.792251908,E4_Acc,2024-06-28 15:22:13.477459908,-15.0,-62.0,12.0
1904-01-01 00:37:23.823501908,E4_Acc,2024-06-28 15:22:13.508709908,-16.0,-62.0,11.0
1904-01-01 00:37:23.854751908,E4_Acc,2024-06-28 15:22:13.539959908,-16.0,-62.0,12.0
1904-01-01 00:37:23.886001908,E4_Acc,2024-06-28 15:22:13.571209908,-16.0,-61.0,12.0
1904-01-01 00:37:23.917251908,E4_Acc,2024-06-28 15:22:13.602459908,-16.0,-61.0,12.0
1904-01-01 00:37:23.948501908,E4_Acc,2024-06-28 15:22:13.633709908,-16.0,-61.0,11.0
1904-01-01 00:37:23.979761921,E4_Acc,2024-06-28 15:22:13.664969921,-16.0,-62.0,11.0
1904-01-01 00:37:24.011011921,E4_Acc,2024-06-28 15:22:13.696219921,-17.0,-63.0,11.0
1904-01-01 00:37:24.042261921,E4_Acc,2024-06-28 15:22:13.727469921,-17.0,-63.0,12.0
1904-01-01 00:37:24.073511921,E4_Acc,2024-06-28 15:22:13.758719921,-16.0,-61.0,12.0
1904-01-01 00:37:24.104761921,E4_Acc,2024-06-28 15:22:13.789969921,-16.0,-60.0,12.0
1904-01-01 00:37:24.136011921,E4_Acc,2024-06-28 15:22:13.821219921,-16.0,-61.0,11.0
1904-01-01 00:37:24.167261921,E4_Acc,2024-06-28 15:22:13.852469921,-16.0,-61.0,12.0
1904-01-01 00:37:24.198521935,E4_Acc,2024-06-28 15:22:13.883729935,-16.0,-62.0,12.0
1904-01-01 00:37:24.229771935,E4_Acc,2024-06-28 15:22:13.914979935,-16.0,-62.0,12.0
1904-01-01 00:37:24.261021935,E4_Acc,2024-06-28 15:22:13.946229935,-16.0,-62.0,11.0
1904-01-01 00:37:24.292271935,E4_Acc,2024-06-28 15:22:13.977479935,-16.0,-62.0,11.0
1904-01-01 00:37:24.323521935,E4_Acc,2024-06-28 15:22:14.008729935,-15.0,-62.0,11.0
1904-01-01 00:37:24.354771935,E4_Acc,2024-06-28 15:22:14.039979935,-15.0,-63.0,10.0
1904-01-01 00:37:24.386021935,E4_Acc,2024-06-28 15:22:14.071229935,-15.0,-63.0,10.0
1904-01-01 00:37:24.417281948,E4_Acc,2024-06-28 15:22:14.102489948,-15.0,-63.0,10.0
1904-01-01 00:37:24.448531948,E4_Acc,2024-06-28 15:22:14.133739948,-15.0,-62.0,10.0
1904-01-01 00:37:24.479781948,E4_Acc,2024-06-28 15:22:14.164989948,-15.0,-61.0,11.0
1904-01-01 00:37:24.511031948,E4_Acc,2024-06-28 15:22:14.196239948,-15.0,-61.0,10.0
1904-01-01 00:37:24.542281948,E4_Acc,2024-06-28 15:22:14.227489948,-16.0,-62.0,11.0
1904-01-01 00:37:24.573531948,E4_Acc,2024-06-28 15:22:14.258739948,-15.0,-62.0,12.0
1904-01-01 00:37:24.604781948,E4_Acc,2024-06-28 15:22:14.289989948,-15.0,-62.0,10.0
1904-01-01 00:37:24.636041962,E4_Acc,2024-06-28 15:22:14.321249962,-15.0,-63.0,10.0
1904-01-01 00:37:24.667291962,E4_Acc,2024-06-28 15:22:14.352499962,-15.0,-63.0,10.0
1904-01-01 00:37:24.698541962,E4_Acc,2024-06-28 15:22:14.383749962,-15.0,-63.0,10.0
1904-01-01 00:37:24.729791962,E4_Acc,2024-06-28 15:22:14.414999962,-15.0,-63.0,10.0
1904-01-01 00:37:24.761041962,E4_Acc,2024-06-28 15:22:14.446249962,-15.0,-63.0,10.0
1904-01-01 00:37:24.792291962,E4_Acc,2024-06-28 15:22:14.477499962,-15.0,-63.0,11.0
1904-01-01 00:37:24.823541962,E4_Acc,2024-06-28 15:22:14.508749962,-14.0,-62.0,10.0
1904-01-01 00:37:24.854801975,E4_Acc,2024-06-28 15:22:14.540009975,-14.0,-62.0,10.0
1904-01-01 00:37:24.886051975,E4_Acc,2024-06-28 15:22:14.571259975,-14.0,-62.0,10.0
1904-01-01 00:37:24.917301975,E4_Acc,2024-06-28 15:22:14.602509975,-15.0,-63.0,10.0
1904-01-01 00:37:24.948551975,E4_Acc,2024-06-28 15:22:14.633759975,-14.0,-63.0,10.0
1904-01-01 00:37:24.979801975,E4_Acc,2024-06-28 15:22:14.665009975,-14.0,-62.0,9.0
1904-01-01 00:37:25.011051975,E4_Acc,2024-06-28 15:22:14.696259975,-15.0,-62.0,9.0
1904-01-01 00:37:25.042301975,E4_Acc,2024-06-28 15:22:14.727509975,-15.0,-62.0,10.0
1904-01-01 00:37:25.073561989,E4_Acc,2024-06-28 15:22:14.758769989,-15.0,-63.0,10.0
1904-01-01 00:37:25.104811989,E4_Acc,2024-06-28 15:22:14.790019989,-15.0,-62.0,10.0
1904-01-01 00:37:25.136061989,E4_Acc,2024-06-28 15:22:14.821269989,-15.0,-62.0,10.0
1904-01-01 00:37:25.167311989,E4_Acc,2024-06-28 15:22:14.852519989,-14.0,-62.0,9.0
1904-01-01 00:37:25.198561989,E4_Acc,2024-06-28 15:22:14.883769989,-15.0,-62.0,9.0
1904-01-01 00:37:25.229811989,E4_Acc,2024-06-28 15:22:14.915019989,-15.0,-63.0,9.0
1904-01-01 00:37:25.261072003,E4_Acc,2024-06-28 15:22:14.946280003,-15.0,-63.0,10.0
1904-01-01 00:37:25.292322003,E4_Acc,2024-06-28 15:22:14.977530003,-15.0,-63.0,10.0
1904-01-01 00:37:25.323572003,E4_Acc,2024-06-28 15:22:15.008780003,-14.0,-62.0,10.0
1904-01-01 00:37:25.354822003,E4_Acc,2024-06-28 15:22:15.040030003,-15.0,-62.0,9.0
1904-01-01 00:37:25.386072003,E4_Acc,2024-06-28 15:22:15.071280003,-15.0,-62.0,10.0
1904-01-01 00:37:25.417322003,E4_Acc,2024-06-28 15:22:15.102530003,-15.0,-63.0,10.0
1904-01-01 00:37:25.448572003,E4_Acc,2024-06-28 15:22:15.133780003,-16.0,-63.0,9.0
1904-01-01 00:37:25.479832016,E4_Acc,2024-06-28 15:22:15.165040016,-16.0,-63.0,8.0
1904-01-01 00:37:25.511082016,E4_Acc,2024-06-28 15:22:15.196290016,-15.0,-62.0,9.0
1904-01-01 00:37:25.542332016,E4_Acc,2024-06-28 15:22:15.227540016,-15.0,-62.0,10.0
1904-01-01 00:37:25.573582016,E4_Acc,2024-06-28 15:22:15.258790016,-15.0,-63.0,10.0
1904-01-01 00:37:25.604832016,E4_Acc,2024-06-28 15:22:15.290040016,-15.0,-63.0,10.0
1904-01-01 00:37:25.636082016,E4_Acc,2024-06-28 15:22:15.321290016,-16.0,-62.0,10.0
1904-01-01 00:37:25.667332016,E4_Acc,2024-06-28 15:22:15.352540016,-15.0,-63.0,10.0
1904-01-01 00:37:25.698592030,E4_Acc,2024-06-28 15:22:15.383800030,-15.0,-63.0,9.0
1904-01-01 00:37:25.729842030,E4_Acc,2024-06-28 15:22:15.415050030,-15.0,-62.0,9.0
1904-01-01 00:37:25.761092030,E4_Acc,2024-06-28 15:22:15.446300030,-14.0,-61.0,9.0
1904-01-01 00:37:25.792342030,E4_Acc,2024-06-28 15:22:15.477550030,-15.0,-61.0,8.0
1904-01-01 00:37:25.823592029,E4_Acc,2024-06-28 15:22:15.508800029,-15.0,-62.0,9.0
1904-01-01 00:37:25.854842030,E4_Acc,2024-06-28 15:22:15.540050030,-15.0,-62.0,8.0
1904-01-01 00:37:25.886092030,E4_Acc,2024-06-28 15:22:15.571300030,-14.0,-63.0,9.0
1904-01-01 00:37:25.917352043,E4_Acc,2024-06-28 15:22:15.602560043,-14.0,-63.0,10.0
1904-01-01 00:37:25.948602043,E4_Acc,2024-06-28 15:22:15.633810043,-13.0,-66.0,10.0
1904-01-01 00:37:25.979852043,E4_Acc,2024-06-28 15:22:15.665060043,-13.0,-63.0,9.0
1904-01-01 00:37:26.011102043,E4_Acc,2024-06-28 15:22:15.696310043,-14.0,-62.0,9.0
1904-01-01 00:37:26.042352043,E4_Acc,2024-06-28 15:22:15.727560043,-15.0,-62.0,9.0
1904-01-01 00:37:26.073602043,E4_Acc,2024-06-28 15:22:15.758810043,-16.0,-60.0,9.0
1904-01-01 00:37:26.104852043,E4_Acc,2024-06-28 15:22:15.790060043,-16.0,-59.0,9.0
1904-01-01 00:37:26.136112057,E4_Acc,2024-06-28 15:22:15.821320057,-16.0,-62.0,9.0
1904-01-01 00:37:26.167362057,E4_Acc,2024-06-28 15:22:15.852570057,-16.0,-63.0,10.0
1904-01-01 00:37:26.198612057,E4_Acc,2024-06-28 15:22:15.883820057,-16.0,-64.0,10.0
1904-01-01 00:37:26.229862057,E4_Acc,2024-06-28 15:22:15.915070057,-15.0,-64.0,9.0
1904-01-01 00:37:26.261112057,E4_Acc,2024-06-28 15:22:15.946320057,-14.0,-63.0,9.0
1904-01-01 00:37:26.292362057,E4_Acc,2024-06-28 15:22:15.977570057,-14.0,-63.0,10.0
1904-01-01 00:37:26.323612057,E4_Acc,2024-06-28 15:22:16.008820057,-13.0,-63.0,10.0
1904-01-01 00:37:26.354872070,E4_Acc,2024-06-28 15:22:16.040080070,-14.0,-61.0,10.0
1904-01-01 00:37:26.386122070,E4_Acc,2024-06-28 15:22:16.071330070,-14.0,-62.0,11.0
1904-01-01 00:37:26.417372070,E4_Acc,2024-06-28 15:22:16.102580070,-15.0,-62.0,10.0
1904-01-01 00:37:26.448622070,E4_Acc,2024-06-28 15:22:16.133830070,-15.0,-62.0,10.0
1904-01-01 00:37:26.479872070,E4_Acc,2024-06-28 15:22:16.165080070,-15.0,-62.0,10.0
1904-01-01 00:37:26.511122070,E4_Acc,2024-06-28 15:22:16.196330070,-16.0,-62.0,10.0
1904-01-01 00:37:26.542372070,E4_Acc,2024-06-28 15:22:16.227580070,-16.0,-62.0,11.0
1904-01-01 00:37:26.573632084,E4_Acc,2024-06-28 15:22:16.258840084,-16.0,-62.0,10.0
1904-01-01 00:37:26.604882084,E4_Acc,2024-06-28 15:22:16.290090084,-14.0,-61.0,10.0
1904-01-01 00:37:26.636132084,E4_Acc,2024-06-28 15:22:16.321340084,-14.0,-62.0,10.0
1904-01-01 00:37:26.667382084,E4_Acc,2024-06-28 15:22:16.352590084,-14.0,-62.0,9.0
1904-01-01 00:37:26.698632084,E4_Acc,2024-06-28 15:22:16.383840084,-14.0,-62.0,10.0
1904-01-01 00:37:26.729882084,E4_Acc,2024-06-28 15:22:16.415090084,-14.0,-63.0,9.0
1904-01-01 00:37:26.761132084,E4_Acc,2024-06-28 15:22:16.446340084,-15.0,-63.0,10.0
1904-01-01 00:37:26.792392098,E4_Acc,2024-06-28 15:22:16.477600098,-15.0,-62.0,10.0
1904-01-01 00:37:26.823642098,E4_Acc,2024-06-28 15:22:16.508850098,-15.0,-62.0,10.0
1904-01-01 00:37:26.854892098,E4_Acc,2024-06-28 15:22:16.540100098,-16.0,-62.0,10.0
1904-01-01 00:37:26.886142098,E4_Acc,2024-06-28 15:22:16.571350098,-16.0,-62.0,10.0
1904-01-01 00:37:26.917392098,E4_Acc,2024-06-28 15:22:16.602600098,-16.0,-62.0,12.0
1904-01-01 00:37:26.948642098,E4_Acc,2024-06-28 15:22:16.633850098,-16.0,-63.0,12.0
1904-01-01 00:37:26.979892098,E4_Acc,2024-06-28 15:22:16.665100098,-17.0,-63.0,11.0
1904-01-01 00:37:27.011152111,E4_Acc,2024-06-28 15:22:16.696360111,-15.0,-63.0,11.0
1904-01-01 00:37:27.042402111,E4_Acc,2024-06-28 15:22:16.727610111,-14.0,-62.0,11.0
1904-01-01 00:37:27.073652111,E4_Acc,2024-06-28 15:22:16.758860111,-13.0,-62.0,10.0
1904-01-01 00:37:27.104902111,E4_Acc,2024-06-28 15:22:16.790110111,-13.0,-62.0,10.0
1904-01-01 00:37:27.136152111,E4_Acc,2024-06-28 15:22:16.821360111,-14.0,-62.0,9.0
1904-01-01 00:37:27.167402111,E4_Acc,2024-06-28 15:22:16.852610111,-14.0,-62.0,9.0
1904-01-01 00:37:27.198652111,E4_Acc,2024-06-28 15:22:16.883860111,-14.0,-62.0,9.0
1904-01-01 00:37:27.229911886,E4_Acc,2024-06-28 15:22:16.915119886,-13.0,-62.0,10.0
1904-01-01 00:37:27.261161886,E4_Acc,2024-06-28 15:22:16.946369886,-14.0,-62.0,10.0
1904-01-01 00:37:27.292411886,E4_Acc,2024-06-28 15:22:16.977619886,-15.0,-62.0,9.0
1904-01-01 00:37:27.323661886,E4_Acc,2024-06-28 15:22:17.008869886,-15.0,-63.0,9.0
1904-01-01 00:37:27.354911886,E4_Acc,2024-06-28 15:22:17.040119886,-15.0,-63.0,9.0
1904-01-01 00:37:27.386161886,E4_Acc,2024-06-28 15:22:17.071369886,-14.0,-62.0,10.0
1904-01-01 00:37:27.417411886,E4_Acc,2024-06-28 15:22:17.102619886,-14.0,-62.0,10.0
1904-01-01 00:37:27.448671900,E4_Acc,2024-06-28 15:22:17.133879900,-14.0,-61.0,10.0
1904-01-01 00:37:27.479921900,E4_Acc,2024-06-28 15:22:17.165129900,-15.0,-61.0,10.0
1904-01-01 00:37:27.511171900,E4_Acc,2024-06-28 15:22:17.196379900,-15.0,-62.0,9.0
1904-01-01 00:37:27.542421900,E4_Acc,2024-06-28 15:22:17.227629900,-15.0,-63.0,9.0
1904-01-01 00:37:27.573671900,E4_Acc,2024-06-28 15:22:17.258879900,-15.0,-65.0,10.0
1904-01-01 00:37:27.604921900,E4_Acc,2024-06-28 15:22:17.290129900,-16.0,-66.0,10.0
1904-01-01 00:37:27.636171900,E4_Acc,2024-06-28 15:22:17.321379900,-16.0,-63.0,10.0
1904-01-01 00:37:27.667431914,E4_Acc,2024-06-28 15:22:17.352639914,-15.0,-62.0,10.0
1904-01-01 00:37:27.698681914,E4_Acc,2024-06-28 15:22:17.383889914,-15.0,-61.0,10.0
1904-01-01 00:37:27.729931914,E4_Acc,2024-06-28 15:22:17.415139914,-15.0,-62.0,9.0
1904-01-01 00:37:27.761181914,E4_Acc,2024-06-28 15:22:17.446389914,-16.0,-62.0,9.0
1904-01-01 00:37:27.792431914,E4_Acc,2024-06-28 15:22:17.477639914,-15.0,-63.0,10.0
1904-01-01 00:37:27.823681914,E4_Acc,2024-06-28 15:22:17.508889914,-15.0,-63.0,10.0
1904-01-01 00:37:27.854941927,E4_Acc,2024-06-28 15:22:17.540149927,-16.0,-63.0,8.0
1904-01-01 00:37:27.886191927,E4_Acc,2024-06-28 15:22:17.571399927,-15.0,-63.0,9.0
1904-01-01 00:37:27.917441927,E4_Acc,2024-06-28 15:22:17.602649927,-14.0,-63.0,9.0
1904-01-01 00:37:27.948691927,E4_Acc,2024-06-28 15:22:17.633899927,-15.0,-63.0,9.0
1904-01-01 00:37:27.979941927,E4_Acc,2024-06-28 15:22:17.665149927,-14.0,-64.0,9.0
1904-01-01 00:37:28.011191927,E4_Acc,2024-06-28 15:22:17.696399927,-14.0,-63.0,9.0
1904-01-01 00:37:28.042441927,E4_Acc,2024-06-28 15:22:17.727649927,-14.0,-63.0,9.0
1904-01-01 00:37:28.073701941,E4_Acc,2024-06-28 15:22:17.758909941,-14.0,-63.0,9.0
1904-01-01 00:37:28.104951941,E4_Acc,2024-06-28 15:22:17.790159941,-14.0,-63.0,8.0
1904-01-01 00:37:28.136201941,E4_Acc,2024-06-28 15:22:17.821409941,-14.0,-63.0,9.0
1904-01-01 00:37:28.167451941,E4_Acc,2024-06-28 15:22:17.852659941,-14.0,-62.0,8.0
1904-01-01 00:37:28.198701941,E4_Acc,2024-06-28 15:22:17.883909941,-15.0,-63.0,8.0
1904-01-01 00:37:28.229951941,E4_Acc,2024-06-28 15:22:17.915159941,-14.0,-62.0,8.0
1904-01-01 00:37:28.261201941,E4_Acc,2024-06-28 15:22:17.946409941,-14.0,-63.0,9.0
1904-01-01 00:37:28.292461954,E4_Acc,2024-06-28 15:22:17.977669954,-14.0,-63.0,9.0
1904-01-01 00:37:28.323711954,E4_Acc,2024-06-28 15:22:18.008919954,-14.0,-64.0,9.0
1904-01-01 00:37:28.354961954,E4_Acc,2024-06-28 15:22:18.040169954,-11.0,-66.0,10.0
1904-01-01 00:37:28.386211954,E4_Acc,2024-06-28 15:22:18.071419954,-7.0,-70.0,14.0
1904-01-01 00:37:28.417461954,E4_Acc,2024-06-28 15:22:18.102669954,-4.0,-71.0,11.0
1904-01-01 00:37:28.448711954,E4_Acc,2024-06-28 15:22:18.133919954,-8.0,-66.0,7.0
1904-01-01 00:37:28.479961954,E4_Acc,2024-06-28 15:22:18.165169954,-15.0,-60.0,6.0
1904-01-01 00:37:28.511221968,E4_Acc,2024-06-28 15:22:18.196429968,-18.0,-56.0,8.0
1904-01-01 00:37:28.542471968,E4_Acc,2024-06-28 15:22:18.227679968,-17.0,-56.0,9.0
1904-01-01 00:37:28.573721968,E4_Acc,2024-06-28 15:22:18.258929968,-18.0,-56.0,8.0
1904-01-01 00:37:28.604971968,E4_Acc,2024-06-28 15:22:18.290179968,-20.0,-56.0,6.0
1904-01-01 00:37:28.636221968,E4_Acc,2024-06-28 15:22:18.321429968,-21.0,-60.0,7.0
1904-01-01 00:37:28.667471968,E4_Acc,2024-06-28 15:22:18.352679968,-19.0,-65.0,9.0
1904-01-01 00:37:28.698721968,E4_Acc,2024-06-28 15:22:18.383929968,-18.0,-65.0,8.0
1904-01-01 00:37:28.729981981,E4_Acc,2024-06-28 15:22:18.415189981,-18.0,-64.0,8.0
1904-01-01 00:37:28.761231981,E4_Acc,2024-06-28 15:22:18.446439981,-19.0,-63.0,9.0
1904-01-01 00:37:28.792481981,E4_Acc,2024-06-28 15:22:18.477689981,-19.0,-62.0,9.0
1904-01-01 00:37:28.823731981,E4_Acc,2024-06-28 15:22:18.508939981,-17.0,-61.0,9.0
1904-01-01 00:37:28.854981981,E4_Acc,2024-06-28 15:22:18.540189981,-16.0,-60.0,9.0
1904-01-01 00:37:28.886231981,E4_Acc,2024-06-28 15:22:18.571439981,-16.0,-61.0,9.0
1904-01-01 00:37:28.917481981,E4_Acc,2024-06-28 15:22:18.602689981,-16.0,-62.0,9.0
1904-01-01 00:37:28.948741995,E4_Acc,2024-06-28 15:22:18.633949995,-15.0,-64.0,9.0
1904-01-01 00:37:28.979991995,E4_Acc,2024-06-28 15:22:18.665199995,-14.0,-64.0,10.0
1904-01-01 00:37:29.011241995,E4_Acc,2024-06-28 15:22:18.696449995,-13.0,-63.0,10.0
1904-01-01 00:37:29.042491995,E4_Acc,2024-06-28 15:22:18.727699995,-13.0,-63.0,10.0
1904-01-01 00:37:29.073741995,E4_Acc,2024-06-28 15:22:18.758949995,-13.0,-62.0,10.0
1904-01-01 00:37:29.104991995,E4_Acc,2024-06-28 15:22:18.790199995,-12.0,-62.0,10.0
1904-01-01 00:37:29.136241995,E4_Acc,2024-06-28 15:22:18.821449995,-13.0,-62.0,9.0
1904-01-01 00:37:29.167502009,E4_Acc,2024-06-28 15:22:18.852710009,-14.0,-62.0,9.0
1904-01-01 00:37:29.198752009,E4_Acc,2024-06-28 15:22:18.883960009,-14.0,-63.0,8.0
1904-01-01 00:37:29.230002009,E4_Acc,2024-06-28 15:22:18.915210009,-14.0,-63.0,9.0
1904-01-01 00:37:29.261252009,E4_Acc,2024-06-28 15:22:18.946460009,-14.0,-62.0,9.0
1904-01-01 00:37:29.292502009,E4_Acc,2024-06-28 15:22:18.977710009,-15.0,-62.0,9.0
1904-01-01 00:37:29.323752009,E4_Acc,2024-06-28 15:22:19.008960009,-14.0,-62.0,9.0
1904-01-01 00:37:29.355002009,E4_Acc,2024-06-28 15:22:19.040210009,-14.0,-62.0,9.0
1904-01-01 00:37:29.386262022,E4_Acc,2024-06-28 15:22:19.071470022,-15.0,-63.0,9.0
1904-01-01 00:37:29.417512022,E4_Acc,2024-06-28 15:22:19.102720022,-15.0,-63.0,10.0
1904-01-01 00:37:29.448762022,E4_Acc,2024-06-28 15:22:19.133970022,-15.0,-63.0,10.0
1904-01-01 00:37:29.480012022,E4_Acc,2024-06-28 15:22:19.165220022,-15.0,-64.0,10.0
1904-01-01 00:37:29.511262022,E4_Acc,2024-06-28 15:22:19.196470022,-16.0,-63.0,10.0
1904-01-01 00:37:29.542512022,E4_Acc,2024-06-28 15:22:19.227720022,-16.0,-63.0,10.0
1904-01-01 00:37:29.573762022,E4_Acc,2024-06-28 15:22:19.258970022,-16.0,-62.0,10.0
1904-01-01 00:37:29.605022036,E4_Acc,2024-06-28 15:22:19.290230036,-16.0,-63.0,10.0
1904-01-01 00:37:29.636272036,E4_Acc,2024-06-28 15:22:19.321480036,-15.0,-63.0,10.0
1904-01-01 00:37:29.667522036,E4_Acc,2024-06-28 15:22:19.352730036,-15.0,-63.0,10.0
1904-01-01 00:37:29.698772036,E4_Acc,2024-06-28 15:22:19.383980036,-14.0,-62.0,9.0
1904-01-01 00:37:29.730022036,E4_Acc,2024-06-28 15:22:19.415230036,-14.0,-62.0,10.0
1904-01-01 00:37:29.761272036,E4_Acc,2024-06-28 15:22:19.446480036,-14.0,-63.0,9.0
1904-01-01 00:37:29.792522036,E4_Acc,2024-06-28 15:22:19.477730036,-14.0,-63.0,9.0
1904-01-01 00:37:29.823782049,E4_Acc,2024-06-28 15:22:19.508990049,-14.0,-63.0,9.0
1904-01-01 00:37:29.855032049,E4_Acc,2024-06-28 15:22:19.540240049,-14.0,-63.0,10.0
1904-01-01 00:37:29.886282049,E4_Acc,2024-06-28 15:22:19.571490049,-14.0,-63.0,9.0
1904-01-01 00:37:29.917532049,E4_Acc,2024-06-28 15:22:19.602740049,-14.0,-63.0,9.0
1904-01-01 00:37:29.948782049,E4_Acc,2024-06-28 15:22:19.633990049,-14.0,-63.0,10.0
1904-01-01 00:37:29.980032049,E4_Acc,2024-06-28 15:22:19.665240049,-14.0,-62.0,9.0
1904-01-01 00:37:30.011292063,E4_Acc,2024-06-28 15:22:19.696500063,-13.0,-62.0,9.0
1904-01-01 00:37:30.042542063,E4_Acc,2024-06-28 15:22:19.727750063,-14.0,-62.0,9.0
1904-01-01 00:37:30.073792063,E4_Acc,2024-06-28 15:22:19.759000063,-15.0,-62.0,9.0
1904-01-01 00:37:30.105042063,E4_Acc,2024-06-28 15:22:19.790250063,-15.0,-62.0,9.0
1904-01-01 00:37:30.136292063,E4_Acc,2024-06-28 15:22:19.821500063,-15.0,-63.0,10.0
1904-01-01 00:37:30.167542063,E4_Acc,2024-06-28 15:22:19.852750063,-15.0,-63.0,10.0
1904-01-01 00:37:30.198792063,E4_Acc,2024-06-28 15:22:19.884000063,-15.0,-63.0,10.0
1904-01-01 00:37:30.230052077,E4_Acc,2024-06-28 15:22:19.915260077,-15.0,-63.0,10.0
1904-01-01 00:37:30.261302077,E4_Acc,2024-06-28 15:22:19.946510077,-15.0,-62.0,10.0
1904-01-01 00:37:30.292552077,E4_Acc,2024-06-28 15:22:19.977760077,-15.0,-62.0,10.0
1904-01-01 00:37:30.323802077,E4_Acc,2024-06-28 15:22:20.009010077,-15.0,-62.0,8.0
1904-01-01 00:37:30.355052077,E4_Acc,2024-06-28 15:22:20.040260077,-15.0,-62.0,9.0
1904-01-01 00:37:30.386302077,E4_Acc,2024-06-28 15:22:20.071510077,-15.0,-63.0,9.0
1904-01-01 00:37:30.417552077,E4_Acc,2024-06-28 15:22:20.102760077,-15.0,-63.0,9.0
1904-01-01 00:37:30.448812090,E4_Acc,2024-06-28 15:22:20.134020090,-14.0,-63.0,9.0
1904-01-01 00:37:30.480062090,E4_Acc,2024-06-28 15:22:20.165270090,-14.0,-63.0,10.0
1904-01-01 00:37:30.511312090,E4_Acc,2024-06-28 15:22:20.196520090,-15.0,-62.0,10.0
1904-01-01 00:37:30.542562090,E4_Acc,2024-06-28 15:22:20.227770090,-15.0,-63.0,10.0
1904-01-01 00:37:30.573812089,E4_Acc,2024-06-28 15:22:20.259020089,-15.0,-62.0,10.0
1904-01-01 00:37:30.605062090,E4_Acc,2024-06-28 15:22:20.290270090,-15.0,-63.0,9.0
1904-01-01 00:37:30.636312090,E4_Acc,2024-06-28 15:22:20.321520090,-15.0,-63.0,10.0
1904-01-01 00:37:30.667572104,E4_Acc,2024-06-28 15:22:20.352780104,-15.0,-62.0,9.0
1904-01-01 00:37:30.698822104,E4_Acc,2024-06-28 15:22:20.384030104,-15.0,-62.0,9.0
1904-01-01 00:37:30.730072104,E4_Acc,2024-06-28 15:22:20.415280104,-15.0,-62.0,10.0
1904-01-01 00:37:30.761322104,E4_Acc,2024-06-28 15:22:20.446530104,-15.0,-62.0,9.0
1904-01-01 00:37:30.792572104,E4_Acc,2024-06-28 15:22:20.477780104,-15.0,-62.0,9.0
1904-01-01 00:37:30.823822104,E4_Acc,2024-06-28 15:22:20.509030104,-15.0,-63.0,9.0
1904-01-01 00:37:30.855072104,E4_Acc,2024-06-28 15:22:20.540280104,-15.0,-63.0,9.0
1904-01-01 00:37:30.886332117,E4_Acc,2024-06-28 15:22:20.571540117,-15.0,-63.0,8.0
1904-01-01 00:37:30.917582117,E4_Acc,2024-06-28 15:22:20.602790117,-15.0,-62.0,8.0
1904-01-01 00:37:30.948832117,E4_Acc,2024-06-28 15:22:20.634040117,-15.0,-62.0,9.0
1904-01-01 00:37:30.980082117,E4_Acc,2024-06-28 15:22:20.665290117,-15.0,-62.0,9.0
1904-01-01 00:37:31.011332117,E4_Acc,2024-06-28 15:22:20.696540117,-16.0,-63.0,9.0
1904-01-01 00:37:31.042582117,E4_Acc,2024-06-28 15:22:20.727790117,-18.0,-62.0,8.0
1904-01-01 00:37:31.073832117,E4_Acc,2024-06-28 15:22:20.759040117,-17.0,-61.0,8.0
1904-01-01 00:37:31.105091892,E4_Acc,2024-06-28 15:22:20.790299892,-17.0,-60.0,8.0
1904-01-01 00:37:31.136341892,E4_Acc,2024-06-28 15:22:20.821549892,-17.0,-60.0,9.0
1904-01-01 00:37:31.167591892,E4_Acc,2024-06-28 15:22:20.852799892,-17.0,-61.0,10.0
1904-01-01 00:37:31.198841892,E4_Acc,2024-06-28 15:22:20.884049892,-16.0,-64.0,10.0
1904-01-01 00:37:31.230091892,E4_Acc,2024-06-28 15:22:20.915299892,-16.0,-64.0,10.0
1904-01-01 00:37:31.261341892,E4_Acc,2024-06-28 15:22:20.946549892,-14.0,-65.0,10.0
1904-01-01 00:37:31.292591892,E4_Acc,2024-06-28 15:22:20.977799892,-12.0,-65.0,11.0
1904-01-01 00:37:31.323851906,E4_Acc,2024-06-28 15:22:21.009059906,-12.0,-63.0,12.0
1904-01-01 00:37:31.355101906,E4_Acc,2024-06-28 15:22:21.040309906,-14.0,-62.0,10.0
1904-01-01 00:37:31.386351906,E4_Acc,2024-06-28 15:22:21.071559906,-15.0,-62.0,9.0
1904-01-01 00:37:31.417601906,E4_Acc,2024-06-28 15:22:21.102809906,-15.0,-62.0,7.0
1904-01-01 00:37:31.448851906,E4_Acc,2024-06-28 15:22:21.134059906,-16.0,-62.0,7.0
1904-01-01 00:37:31.480101906,E4_Acc,2024-06-28 15:22:21.165309906,-15.0,-63.0,7.0
1904-01-01 00:37:31.511351906,E4_Acc,2024-06-28 15:22:21.196559906,-14.0,-63.0,7.0
1904-01-01 00:37:31.542611920,E4_Acc,2024-06-28 15:22:21.227819920,-14.0,-62.0,7.0
1904-01-01 00:37:31.573861920,E4_Acc,2024-06-28 15:22:21.259069920,-14.0,-62.0,8.0
1904-01-01 00:37:31.605111920,E4_Acc,2024-06-28 15:22:21.290319920,-14.0,-63.0,8.0
1904-01-01 00:37:31.636361920,E4_Acc,2024-06-28 15:22:21.321569920,-14.0,-62.0,9.0
1904-01-01 00:37:31.667611920,E4_Acc,2024-06-28 15:22:21.352819920,-15.0,-63.0,9.0
1904-01-01 00:37:31.698861920,E4_Acc,2024-06-28 15:22:21.384069920,-16.0,-63.0,10.0
1904-01-01 00:37:31.730111920,E4_Acc,2024-06-28 15:22:21.415319920,-17.0,-62.0,11.0
1904-01-01 00:37:31.761371933,E4_Acc,2024-06-28 15:22:21.446579933,-17.0,-62.0,10.0
1904-01-01 00:37:31.792621933,E4_Acc,2024-06-28 15:22:21.477829933,-16.0,-62.0,10.0
1904-01-01 00:37:31.823871933,E4_Acc,2024-06-28 15:22:21.509079933,-17.0,-63.0,9.0
1904-01-01 00:37:31.855121933,E4_Acc,2024-06-28 15:22:21.540329933,-18.0,-63.0,8.0
1904-01-01 00:37:31.886371933,E4_Acc,2024-06-28 15:22:21.571579933,-17.0,-63.0,8.0
1904-01-01 00:37:31.917621933,E4_Acc,2024-06-28 15:22:21.602829933,-17.0,-63.0,8.0
1904-01-01 00:37:31.948871933,E4_Acc,2024-06-28 15:22:21.634079933,-16.0,-62.0,9.0
1904-01-01 00:37:31.980131947,E4_Acc,2024-06-28 15:22:21.665339947,-17.0,-62.0,9.0
1904-01-01 00:37:32.011381947,E4_Acc,2024-06-28 15:22:21.696589947,-17.0,-62.0,9.0
1904-01-01 00:37:32.042631947,E4_Acc,2024-06-28 15:22:21.727839947,-16.0,-62.0,10.0
1904-01-01 00:37:32.073881947,E4_Acc,2024-06-28 15:22:21.759089947,-16.0,-63.0,10.0
1904-01-01 00:37:32.105131947,E4_Acc,2024-06-28 15:22:21.790339947,-16.0,-63.0,10.0
1904-01-01 00:37:32.136381947,E4_Acc,2024-06-28 15:22:21.821589947,-15.0,-63.0,10.0
1904-01-01 00:37:32.167631947,E4_Acc,2024-06-28 15:22:21.852839947,-15.0,-63.0,10.0
1904-01-01 00:37:32.198891960,E4_Acc,2024-06-28 15:22:21.884099960,-14.0,-63.0,10.0
1904-01-01 00:37:32.230141960,E4_Acc,2024-06-28 15:22:21.915349960,-15.0,-62.0,9.0
1904-01-01 00:37:32.261391960,E4_Acc,2024-06-28 15:22:21.946599960,-15.0,-62.0,9.0
1904-01-01 00:37:32.292641960,E4_Acc,2024-06-28 15:22:21.977849960,-14.0,-62.0,9.0
1904-01-01 00:37:32.323891960,E4_Acc,2024-06-28 15:22:22.009099960,-14.0,-62.0,9.0
1904-01-01 00:37:32.355141960,E4_Acc,2024-06-28 15:22:22.040349960,-15.0,-62.0,9.0
1904-01-01 00:37:32.386391960,E4_Acc,2024-06-28 15:22:22.071599960,-15.0,-62.0,9.0
1904-01-01 00:37:32.417651974,E4_Acc,2024-06-28 15:22:22.102859974,-15.0,-62.0,9.0
1904-01-01 00:37:32.448901974,E4_Acc,2024-06-28 15:22:22.134109974,-14.0,-62.0,10.0
1904-01-01 00:37:32.480151974,E4_Acc,2024-06-28 15:22:22.165359974,-15.0,-62.0,10.0
1904-01-01 00:37:32.511401974,E4_Acc,2024-06-28 15:22:22.196609974,-16.0,-62.0,10.0
1904-01-01 00:37:32.542651974,E4_Acc,2024-06-28 15:22:22.227859974,-15.0,-62.0,10.0
1904-01-01 00:37:32.573901974,E4_Acc,2024-06-28 15:22:22.259109974,-16.0,-62.0,11.0
1904-01-01 00:37:32.605151974,E4_Acc,2024-06-28 15:22:22.290359974,-15.0,-62.0,11.0
1904-01-01 00:37:32.636411987,E4_Acc,2024-06-28 15:22:22.321619987,-15.0,-62.0,11.0
1904-01-01 00:37:32.667661987,E4_Acc,2024-06-28 15:22:22.352869987,-17.0,-62.0,10.0
1904-01-01 00:37:32.698911987,E4_Acc,2024-06-28 15:22:22.384119987,-16.0,-61.0,10.0
1904-01-01 00:37:32.730161987,E4_Acc,2024-06-28 15:22:22.415369987,-16.0,-62.0,10.0
1904-01-01 00:37:32.761411987,E4_Acc,2024-06-28 15:22:22.446619987,-16.0,-62.0,10.0
1904-01-01 00:37:32.792661987,E4_Acc,2024-06-28 15:22:22.477869987,-16.0,-62.0,10.0
1904-01-01 00:37:32.823922001,E4_Acc,2024-06-28 15:22:22.509130001,-16.0,-63.0,10.0
1904-01-01 00:37:32.855172001,E4_Acc,2024-06-28 15:22:22.540380001,-16.0,-64.0,11.0
1904-01-01 00:37:32.886422001,E4_Acc,2024-06-28 15:22:22.571630001,-16.0,-64.0,11.0
1904-01-01 00:37:32.917672001,E4_Acc,2024-06-28 15:22:22.602880001,-16.0,-63.0,11.0
1904-01-01 00:37:32.948922001,E4_Acc,2024-06-28 15:22:22.634130001,-16.0,-62.0,10.0
1904-01-01 00:37:32.980172001,E4_Acc,2024-06-28 15:22:22.665380001,-16.0,-61.0,10.0
1904-01-01 00:37:33.011422001,E4_Acc,2024-06-28 15:22:22.696630001,-16.0,-62.0,10.0
1904-01-01 00:37:33.042682015,E4_Acc,2024-06-28 15:22:22.727890015,-15.0,-62.0,11.0
1904-01-01 00:37:33.073932015,E4_Acc,2024-06-28 15:22:22.759140015,-15.0,-63.0,11.0
1904-01-01 00:37:33.105182015,E4_Acc,2024-06-28 15:22:22.790390015,-15.0,-63.0,10.0
1904-01-01 00:37:33.136432015,E4_Acc,2024-06-28 15:22:22.821640015,-15.0,-62.0,10.0
1904-01-01 00:37:33.167682015,E4_Acc,2024-06-28 15:22:22.852890015,-15.0,-62.0,10.0
1904-01-01 00:37:33.198932015,E4_Acc,2024-06-28 15:22:22.884140015,-16.0,-62.0,9.0
1904-01-01 00:37:33.230182015,E4_Acc,2024-06-28 15:22:22.915390015,-16.0,-63.0,9.0
1904-01-01 00:37:33.261442028,E4_Acc,2024-06-28 15:22:22.946650028,-16.0,-62.0,10.0
1904-01-01 00:37:33.292692028,E4_Acc,2024-06-28 15:22:22.977900028,-17.0,-62.0,10.0
1904-01-01 00:37:33.323942028,E4_Acc,2024-06-28 15:22:23.009150028,-17.0,-62.0,11.0
1904-01-01 00:37:33.355192028,E4_Acc,2024-06-28 15:22:23.040400028,-16.0,-62.0,11.0
1904-01-01 00:37:33.386442028,E4_Acc,2024-06-28 15:22:23.071650028,-16.0,-62.0,11.0
1904-01-01 00:37:33.417692028,E4_Acc,2024-06-28 15:22:23.102900028,-16.0,-63.0,11.0
1904-01-01 00:37:33.448942028,E4_Acc,2024-06-28 15:22:23.134150028,-15.0,-62.0,11.0
1904-01-01 00:37:33.480202042,E4_Acc,2024-06-28 15:22:23.165410042,-16.0,-62.0,10.0
1904-01-01 00:37:33.511452042,E4_Acc,2024-06-28 15:22:23.196660042,-15.0,-62.0,11.0
1904-01-01 00:37:33.542702042,E4_Acc,2024-06-28 15:22:23.227910042,-16.0,-62.0,10.0
1904-01-01 00:37:33.573952041,E4_Acc,2024-06-28 15:22:23.259160041,-15.0,-62.0,10.0
1904-01-01 00:37:33.605202042,E4_Acc,2024-06-28 15:22:23.290410042,-16.0,-62.0,10.0
1904-01-01 00:37:33.636452042,E4_Acc,2024-06-28 15:22:23.321660042,-16.0,-62.0,11.0
1904-01-01 00:37:33.667702042,E4_Acc,2024-06-28 15:22:23.352910042,-16.0,-62.0,11.0
1904-01-01 00:37:33.698962055,E4_Acc,2024-06-28 15:22:23.384170055,-15.0,-62.0,12.0
1904-01-01 00:37:33.730212055,E4_Acc,2024-06-28 15:22:23.415420055,-16.0,-62.0,11.0
1904-01-01 00:37:33.761462055,E4_Acc,2024-06-28 15:22:23.446670055,-16.0,-62.0,11.0
1904-01-01 00:37:33.792712055,E4_Acc,2024-06-28 15:22:23.477920055,-16.0,-62.0,11.0
1904-01-01 00:37:33.823962055,E4_Acc,2024-06-28 15:22:23.509170055,-16.0,-62.0,11.0
1904-01-01 00:37:33.855212055,E4_Acc,2024-06-28 15:22:23.540420055,-16.0,-62.0,11.0
1904-01-01 00:37:33.886462055,E4_Acc,2024-06-28 15:22:23.571670055,-16.0,-62.0,12.0
1904-01-01 00:37:33.917722069,E4_Acc,2024-06-28 15:22:23.602930069,-15.0,-62.0,12.0
1904-01-01 00:37:33.948972069,E4_Acc,2024-06-28 15:22:23.634180069,-15.0,-61.0,11.0
1904-01-01 00:37:33.980222069,E4_Acc,2024-06-28 15:22:23.665430069,-15.0,-61.0,10.0
1904-01-01 00:37:34.011472069,E4_Acc,2024-06-28 15:22:23.696680069,-15.0,-62.0,11.0
1904-01-01 00:37:34.042722069,E4_Acc,2024-06-28 15:22:23.727930069,-14.0,-62.0,11.0
1904-01-01 00:37:34.073972069,E4_Acc,2024-06-28 15:22:23.759180069,-14.0,-63.0,10.0
1904-01-01 00:37:34.105222069,E4_Acc,2024-06-28 15:22:23.790430069,-15.0,-63.0,11.0
1904-01-01 00:37:34.136482083,E4_Acc,2024-06-28 15:22:23.821690083,-14.0,-63.0,12.0
1904-01-01 00:37:34.167732083,E4_Acc,2024-06-28 15:22:23.852940083,-14.0,-62.0,11.0
1904-01-01 00:37:34.198982083,E4_Acc,2024-06-28 15:22:23.884190083,-14.0,-62.0,12.0
1904-01-01 00:37:34.230232083,E4_Acc,2024-06-28 15:22:23.915440083,-15.0,-62.0,11.0
1904-01-01 00:37:34.261482083,E4_Acc,2024-06-28 15:22:23.946690083,-15.0,-63.0,12.0
1904-01-01 00:37:34.292732083,E4_Acc,2024-06-28 15:22:23.977940083,-15.0,-62.0,12.0
1904-01-01 00:37:34.323982083,E4_Acc,2024-06-28 15:22:24.009190083,-16.0,-62.0,12.0
1904-01-01 00:37:34.355242096,E4_Acc,2024-06-28 15:22:24.040450096,-16.0,-62.0,12.0
1904-01-01 00:37:34.386492096,E4_Acc,2024-06-28 15:22:24.071700096,-15.0,-62.0,12.0
1904-01-01 00:37:34.417742096,E4_Acc,2024-06-28 15:22:24.102950096,-15.0,-62.0,11.0
1904-01-01 00:37:34.448992095,E4_Acc,2024-06-28 15:22:24.134200095,-15.0,-62.0,11.0
1904-01-01 00:37:34.480242096,E4_Acc,2024-06-28 15:22:24.165450096,-15.0,-62.0,11.0
1904-01-01 00:37:34.511492096,E4_Acc,2024-06-28 15:22:24.196700096,-15.0,-62.0,11.0
1904-01-01 00:37:34.542742096,E4_Acc,2024-06-28 15:22:24.227950096,-15.0,-62.0,11.0
1904-01-01 00:37:34.574002110,E4_Acc,2024-06-28 15:22:24.259210110,-15.0,-62.0,11.0
1904-01-01 00:37:34.605252110,E4_Acc,2024-06-28 15:22:24.290460110,-14.0,-62.0,12.0
1904-01-01 00:37:34.636502110,E4_Acc,2024-06-28 15:22:24.321710110,-14.0,-62.0,11.0
1904-01-01 00:37:34.667752110,E4_Acc,2024-06-28 15:22:24.352960110,-14.0,-62.0,11.0
1904-01-01 00:37:34.699002110,E4_Acc,2024-06-28 15:22:24.384210110,-14.0,-62.0,11.0
1904-01-01 00:37:34.730252110,E4_Acc,2024-06-28 15:22:24.415460110,-14.0,-62.0,11.0
1904-01-01 00:37:34.761502110,E4_Acc,2024-06-28 15:22:24.446710110,-14.0,-63.0,11.0
1904-01-01 00:37:34.792761885,E4_Acc,2024-06-28 15:22:24.477969885,-15.0,-62.0,11.0
1904-01-01 00:37:34.824011885,E4_Acc,2024-06-28 15:22:24.509219885,-15.0,-62.0,11.0
1904-01-01 00:37:34.855261885,E4_Acc,2024-06-28 15:22:24.540469885,-15.0,-62.0,11.0
1904-01-01 00:37:34.886511885,E4_Acc,2024-06-28 15:22:24.571719885,-15.0,-62.0,11.0
1904-01-01 00:37:34.917761885,E4_Acc,2024-06-28 15:22:24.602969885,-15.0,-63.0,11.0
1904-01-01 00:37:34.949011885,E4_Acc,2024-06-28 15:22:24.634219885,-15.0,-63.0,11.0
1904-01-01 00:37:34.980271898,E4_Acc,2024-06-28 15:22:24.665479898,-15.0,-63.0,11.0
1904-01-01 00:37:35.011521898,E4_Acc,2024-06-28 15:22:24.696729898,-15.0,-62.0,11.0
1904-01-01 00:37:35.042771898,E4_Acc,2024-06-28 15:22:24.727979898,-15.0,-62.0,11.0
1904-01-01 00:37:35.074021898,E4_Acc,2024-06-28 15:22:24.759229898,-15.0,-62.0,11.0
1904-01-01 00:37:35.105271898,E4_Acc,2024-06-28 15:22:24.790479898,-15.0,-62.0,11.0
1904-01-01 00:37:35.136521898,E4_Acc,2024-06-28 15:22:24.821729898,-15.0,-63.0,11.0
1904-01-01 00:37:35.167771898,E4_Acc,2024-06-28 15:22:24.852979898,-15.0,-62.0,11.0
1904-01-01 00:37:35.199031912,E4_Acc,2024-06-28 15:22:24.884239912,-15.0,-62.0,11.0
1904-01-01 00:37:35.230281912,E4_Acc,2024-06-28 15:22:24.915489912,-15.0,-62.0,11.0
1904-01-01 00:37:35.261531912,E4_Acc,2024-06-28 15:22:24.946739912,-14.0,-62.0,11.0
1904-01-01 00:37:35.292781912,E4_Acc,2024-06-28 15:22:24.977989912,-14.0,-63.0,11.0
1904-01-01 00:37:35.324031912,E4_Acc,2024-06-28 15:22:25.009239912,-14.0,-63.0,11.0
1904-01-01 00:37:35.355281912,E4_Acc,2024-06-28 15:22:25.040489912,-14.0,-62.0,11.0
1904-01-01 00:37:35.386531912,E4_Acc,2024-06-28 15:22:25.071739912,-14.0,-62.0,10.0
1904-01-01 00:37:35.417791926,E4_Acc,2024-06-28 15:22:25.102999926,-14.0,-62.0,11.0
1904-01-01 00:37:35.449041926,E4_Acc,2024-06-28 15:22:25.134249926,-15.0,-62.0,10.0
1904-01-01 00:37:35.480291926,E4_Acc,2024-06-28 15:22:25.165499926,-14.0,-62.0,11.0
1904-01-01 00:37:35.511541926,E4_Acc,2024-06-28 15:22:25.196749926,-15.0,-62.0,11.0
1904-01-01 00:37:35.542791926,E4_Acc,2024-06-28 15:22:25.227999926,-15.0,-63.0,11.0
1904-01-01 00:37:35.574041926,E4_Acc,2024-06-28 15:22:25.259249926,-16.0,-62.0,11.0
1904-01-01 00:37:35.605291926,E4_Acc,2024-06-28 15:22:25.290499926,-16.0,-62.0,10.0
1904-01-01 00:37:35.636551939,E4_Acc,2024-06-28 15:22:25.321759939,-15.0,-62.0,10.0
1904-01-01 00:37:35.667801939,E4_Acc,2024-06-28 15:22:25.353009939,-15.0,-63.0,11.0
1904-01-01 00:37:35.699051939,E4_Acc,2024-06-28 15:22:25.384259939,-15.0,-62.0,10.0
1904-01-01 00:37:35.730301939,E4_Acc,2024-06-28 15:22:25.415509939,-15.0,-62.0,10.0
1904-01-01 00:37:35.761551939,E4_Acc,2024-06-28 15:22:25.446759939,-15.0,-63.0,11.0
1904-01-01 00:37:35.792801939,E4_Acc,2024-06-28 15:22:25.478009939,-15.0,-62.0,11.0
1904-01-01 00:37:35.824051939,E4_Acc,2024-06-28 15:22:25.509259939,-14.0,-63.0,11.0
1904-01-01 00:37:35.855311953,E4_Acc,2024-06-28 15:22:25.540519953,-15.0,-62.0,11.0
1904-01-01 00:37:35.886561953,E4_Acc,2024-06-28 15:22:25.571769953,-15.0,-62.0,10.0
1904-01-01 00:37:35.917811953,E4_Acc,2024-06-28 15:22:25.603019953,-15.0,-62.0,10.0
1904-01-01 00:37:35.949061953,E4_Acc,2024-06-28 15:22:25.634269953,-16.0,-62.0,10.0
1904-01-01 00:37:35.980311953,E4_Acc,2024-06-28 15:22:25.665519953,-15.0,-62.0,10.0
1904-01-01 00:37:36.011561953,E4_Acc,2024-06-28 15:22:25.696769953,-15.0,-63.0,10.0
1904-01-01 00:37:36.042811953,E4_Acc,2024-06-28 15:22:25.728019953,-15.0,-62.0,11.0
1904-01-01 00:37:36.074071966,E4_Acc,2024-06-28 15:22:25.759279966,-16.0,-62.0,10.0
1904-01-01 00:37:36.105321966,E4_Acc,2024-06-28 15:22:25.790529966,-16.0,-62.0,10.0
1904-01-01 00:37:36.136571966,E4_Acc,2024-06-28 15:22:25.821779966,-15.0,-62.0,11.0
1904-01-01 00:37:36.167821966,E4_Acc,2024-06-28 15:22:25.853029966,-15.0,-63.0,11.0
1904-01-01 00:37:36.199071966,E4_Acc,2024-06-28 15:22:25.884279966,-15.0,-62.0,11.0
1904-01-01 00:37:36.230321966,E4_Acc,2024-06-28 15:22:25.915529966,-14.0,-62.0,11.0
1904-01-01 00:37:36.261571966,E4_Acc,2024-06-28 15:22:25.946779966,-15.0,-62.0,11.0
1904-01-01 00:37:36.292831980,E4_Acc,2024-06-28 15:22:25.978039980,-15.0,-62.0,11.0
1904-01-01 00:37:36.324081980,E4_Acc,2024-06-28 15:22:26.009289980,-15.0,-62.0,10.0
1904-01-01 00:37:36.355331980,E4_Acc,2024-06-28 15:22:26.040539980,-15.0,-62.0,10.0
1904-01-01 00:37:36.386581980,E4_Acc,2024-06-28 15:22:26.071789980,-15.0,-62.0,11.0
1904-01-01 00:37:36.417831980,E4_Acc,2024-06-28 15:22:26.103039980,-15.0,-62.0,11.0
1904-01-01 00:37:36.449081980,E4_Acc,2024-06-28 15:22:26.134289980,-15.0,-62.0,11.0
1904-01-01 00:37:36.480331980,E4_Acc,2024-06-28 15:22:26.165539980,-15.0,-62.0,11.0
1904-01-01 00:37:36.511591994,E4_Acc,2024-06-28 15:22:26.196799994,-15.0,-62.0,11.0
1904-01-01 00:37:36.542841994,E4_Acc,2024-06-28 15:22:26.228049994,-15.0,-62.0,12.0
1904-01-01 00:37:36.574091993,E4_Acc,2024-06-28 15:22:26.259299993,-14.0,-62.0,11.0
1904-01-01 00:37:36.605341994,E4_Acc,2024-06-28 15:22:26.290549994,-14.0,-62.0,11.0
1904-01-01 00:37:36.636591994,E4_Acc,2024-06-28 15:22:26.321799994,-15.0,-62.0,11.0
1904-01-01 00:37:36.667841994,E4_Acc,2024-06-28 15:22:26.353049994,-15.0,-62.0,11.0
1904-01-01 00:37:36.699091994,E4_Acc,2024-06-28 15:22:26.384299994,-15.0,-62.0,11.0
1904-01-01 00:37:36.730352007,E4_Acc,2024-06-28 15:22:26.415560007,-15.0,-62.0,11.0
1904-01-01 00:37:36.761602007,E4_Acc,2024-06-28 15:22:26.446810007,-15.0,-62.0,11.0
1904-01-01 00:37:36.792852007,E4_Acc,2024-06-28 15:22:26.478060007,-15.0,-62.0,11.0
1904-01-01 00:37:36.824102006,E4_Acc,2024-06-28 15:22:26.509310006,-15.0,-62.0,11.0
1904-01-01 00:37:36.855352007,E4_Acc,2024-06-28 15:22:26.540560007,-16.0,-62.0,11.0
1904-01-01 00:37:36.886602007,E4_Acc,2024-06-28 15:22:26.571810007,-16.0,-62.0,11.0
1904-01-01 00:37:36.917852007,E4_Acc,2024-06-28 15:22:26.603060007,-15.0,-62.0,11.0
1904-01-01 00:37:36.949112021,E4_Acc,2024-06-28 15:22:26.634320021,-15.0,-62.0,11.0
1904-01-01 00:37:36.980362021,E4_Acc,2024-06-28 15:22:26.665570021,-15.0,-62.0,11.0
1904-01-01 00:37:37.011612021,E4_Acc,2024-06-28 15:22:26.696820021,-16.0,-62.0,11.0
1904-01-01 00:37:37.042862021,E4_Acc,2024-06-28 15:22:26.728070021,-15.0,-62.0,11.0
1904-01-01 00:37:37.074112021,E4_Acc,2024-06-28 15:22:26.759320021,-15.0,-62.0,11.0
1904-01-01 00:37:37.105362021,E4_Acc,2024-06-28 15:22:26.790570021,-16.0,-62.0,11.0
1904-01-01 00:37:37.136612021,E4_Acc,2024-06-28 15:22:26.821820021,-16.0,-62.0,11.0
1904-01-01 00:37:37.167872034,E4_Acc,2024-06-28 15:22:26.853080034,-16.0,-62.0,11.0
1904-01-01 00:37:37.199122034,E4_Acc,2024-06-28 15:22:26.884330034,-16.0,-62.0,11.0
1904-01-01 00:37:37.230372034,E4_Acc,2024-06-28 15:22:26.915580034,-16.0,-62.0,11.0
1904-01-01 00:37:37.261622034,E4_Acc,2024-06-28 15:22:26.946830034,-15.0,-62.0,11.0
1904-01-01 00:37:37.292872034,E4_Acc,2024-06-28 15:22:26.978080034,-16.0,-62.0,11.0
1904-01-01 00:37:37.324122034,E4_Acc,2024-06-28 15:22:27.009330034,-15.0,-62.0,12.0
1904-01-01 00:37:37.355382048,E4_Acc,2024-06-28 15:22:27.040590048,-15.0,-62.0,11.0
1904-01-01 00:37:37.386632048,E4_Acc,2024-06-28 15:22:27.071840048,-16.0,-62.0,11.0
1904-01-01 00:37:37.417882048,E4_Acc,2024-06-28 15:22:27.103090048,-16.0,-62.0,11.0
1904-01-01 00:37:37.449132048,E4_Acc,2024-06-28 15:22:27.134340048,-15.0,-62.0,11.0
1904-01-01 00:37:37.480382048,E4_Acc,2024-06-28 15:22:27.165590048,-16.0,-62.0,12.0
1904-01-01 00:37:37.511632048,E4_Acc,2024-06-28 15:22:27.196840048,-16.0,-62.0,11.0
1904-01-01 00:37:37.542882048,E4_Acc,2024-06-28 15:22:27.228090048,-15.0,-62.0,11.0
1904-01-01 00:37:37.574142061,E4_Acc,2024-06-28 15:22:27.259350061,-14.0,-62.0,12.0
1904-01-01 00:37:37.605392061,E4_Acc,2024-06-28 15:22:27.290600061,-14.0,-62.0,12.0
1904-01-01 00:37:37.636642061,E4_Acc,2024-06-28 15:22:27.321850061,-14.0,-62.0,12.0
1904-01-01 00:37:37.667892061,E4_Acc,2024-06-28 15:22:27.353100061,-15.0,-62.0,12.0
1904-01-01 00:37:37.699142061,E4_Acc,2024-06-28 15:22:27.384350061,-15.0,-62.0,11.0
1904-01-01 00:37:37.730392061,E4_Acc,2024-06-28 15:22:27.415600061,-16.0,-62.0,11.0
1904-01-01 00:37:37.761642061,E4_Acc,2024-06-28 15:22:27.446850061,-15.0,-62.0,12.0
1904-01-01 00:37:37.792902075,E4_Acc,2024-06-28 15:22:27.478110075,-14.0,-62.0,11.0
1904-01-01 00:37:37.824152075,E4_Acc,2024-06-28 15:22:27.509360075,-15.0,-62.0,11.0
1904-01-01 00:37:37.855402075,E4_Acc,2024-06-28 15:22:27.540610075,-14.0,-62.0,12.0
1904-01-01 00:37:37.886652075,E4_Acc,2024-06-28 15:22:27.571860075,-15.0,-62.0,11.0
1904-01-01 00:37:37.917902075,E4_Acc,2024-06-28 15:22:27.603110075,-14.0,-62.0,11.0
1904-01-01 00:37:37.949152075,E4_Acc,2024-06-28 15:22:27.634360075,-17.0,-62.0,9.0
1904-01-01 00:37:37.980402075,E4_Acc,2024-06-28 15:22:27.665610075,-18.0,-61.0,9.0
1904-01-01 00:37:38.011662089,E4_Acc,2024-06-28 15:22:27.696870089,-19.0,-62.0,9.0
1904-01-01 00:37:38.042912089,E4_Acc,2024-06-28 15:22:27.728120089,-18.0,-62.0,9.0
1904-01-01 00:37:38.074162089,E4_Acc,2024-06-28 15:22:27.759370089,-20.0,-62.0,7.0
1904-01-01 00:37:38.105412089,E4_Acc,2024-06-28 15:22:27.790620089,-20.0,-62.0,8.0
1904-01-01 00:37:38.136662089,E4_Acc,2024-06-28 15:22:27.821870089,-20.0,-61.0,7.0
1904-01-01 00:37:38.167912089,E4_Acc,2024-06-28 15:22:27.853120089,-21.0,-60.0,6.0
1904-01-01 00:37:38.199162089,E4_Acc,2024-06-28 15:22:27.884370089,-20.0,-61.0,6.0
1904-01-01 00:37:38.230422102,E4_Acc,2024-06-28 15:22:27.915630102,-19.0,-61.0,7.0
1904-01-01 00:37:38.261672102,E4_Acc,2024-06-28 15:22:27.946880102,-18.0,-61.0,6.0
1904-01-01 00:37:38.292922102,E4_Acc,2024-06-28 15:22:27.978130102,-20.0,-62.0,7.0
1904-01-01 00:37:38.324172102,E4_Acc,2024-06-28 15:22:28.009380102,-18.0,-61.0,8.0
1904-01-01 00:37:38.355422102,E4_Acc,2024-06-28 15:22:28.040630102,-18.0,-62.0,10.0
1904-01-01 00:37:38.386672102,E4_Acc,2024-06-28 15:22:28.071880102,-19.0,-62.0,10.0
1904-01-01 00:37:38.417922102,E4_Acc,2024-06-28 15:22:28.103130102,-19.0,-62.0,9.0
1904-01-01 00:37:38.449182116,E4_Acc,2024-06-28 15:22:28.134390116,-20.0,-62.0,8.0
1904-01-01 00:37:38.480432116,E4_Acc,2024-06-28 15:22:28.165640116,-18.0,-63.0,9.0
1904-01-01 00:37:38.511682116,E4_Acc,2024-06-28 15:22:28.196890116,-16.0,-62.0,11.0
1904-01-01 00:37:38.542932116,E4_Acc,2024-06-28 15:22:28.228140116,-16.0,-62.0,10.0
1904-01-01 00:37:38.574182116,E4_Acc,2024-06-28 15:22:28.259390116,-16.0,-62.0,10.0
1904-01-01 00:37:38.605432116,E4_Acc,2024-06-28 15:22:28.290640116,-17.0,-61.0,8.0
1904-01-01 00:37:38.636682116,E4_Acc,2024-06-28 15:22:28.321890116,-17.0,-61.0,7.0
1904-01-01 00:37:38.667941891,E4_Acc,2024-06-28 15:22:28.353149891,-17.0,-62.0,8.0
1904-01-01 00:37:38.699191891,E4_Acc,2024-06-28 15:22:28.384399891,-17.0,-62.0,8.0
1904-01-01 00:37:38.730441891,E4_Acc,2024-06-28 15:22:28.415649891,-17.0,-61.0,8.0
1904-01-01 00:37:38.761691891,E4_Acc,2024-06-28 15:22:28.446899891,-18.0,-61.0,8.0
1904-01-01 00:37:38.792941891,E4_Acc,2024-06-28 15:22:28.478149891,-18.0,-62.0,8.0
1904-01-01 00:37:38.824191891,E4_Acc,2024-06-28 15:22:28.509399891,-17.0,-61.0,8.0
1904-01-01 00:37:38.855441891,E4_Acc,2024-06-28 15:22:28.540649891,-17.0,-62.0,9.0
1904-01-01 00:37:38.886701904,E4_Acc,2024-06-28 15:22:28.571909904,-17.0,-62.0,10.0
1904-01-01 00:37:38.917951904,E4_Acc,2024-06-28 15:22:28.603159904,-16.0,-62.0,10.0
1904-01-01 00:37:38.949201904,E4_Acc,2024-06-28 15:22:28.634409904,-16.0,-62.0,11.0
1904-01-01 00:37:38.980451904,E4_Acc,2024-06-28 15:22:28.665659904,-16.0,-63.0,10.0
1904-01-01 00:37:39.011701904,E4_Acc,2024-06-28 15:22:28.696909904,-17.0,-63.0,10.0
1904-01-01 00:37:39.042951904,E4_Acc,2024-06-28 15:22:28.728159904,-17.0,-62.0,10.0
1904-01-01 00:37:39.074201904,E4_Acc,2024-06-28 15:22:28.759409904,-17.0,-61.0,10.0
1904-01-01 00:37:39.105461918,E4_Acc,2024-06-28 15:22:28.790669918,-18.0,-62.0,9.0
1904-01-01 00:37:39.136711918,E4_Acc,2024-06-28 15:22:28.821919918,-17.0,-62.0,9.0
1904-01-01 00:37:39.167961918,E4_Acc,2024-06-28 15:22:28.853169918,-18.0,-62.0,9.0
1904-01-01 00:37:39.199211918,E4_Acc,2024-06-28 15:22:28.884419918,-17.0,-61.0,9.0
1904-01-01 00:37:39.230461918,E4_Acc,2024-06-28 15:22:28.915669918,-17.0,-62.0,10.0
1904-01-01 00:37:39.261711918,E4_Acc,2024-06-28 15:22:28.946919918,-18.0,-62.0,9.0
1904-01-01 00:37:39.292961918,E4_Acc,2024-06-28 15:22:28.978169918,-18.0,-62.0,8.0
1904-01-01 00:37:39.324221932,E4_Acc,2024-06-28 15:22:29.009429932,-18.0,-63.0,9.0
1904-01-01 00:37:39.355471932,E4_Acc,2024-06-28 15:22:29.040679932,-18.0,-62.0,10.0
1904-01-01 00:37:39.386721932,E4_Acc,2024-06-28 15:22:29.071929932,-17.0,-61.0,10.0
1904-01-01 00:37:39.417971932,E4_Acc,2024-06-28 15:22:29.103179932,-17.0,-62.0,10.0
1904-01-01 00:37:39.449221932,E4_Acc,2024-06-28 15:22:29.134429932,-16.0,-62.0,9.0
1904-01-01 00:37:39.480471932,E4_Acc,2024-06-28 15:22:29.165679932,-15.0,-63.0,11.0
1904-01-01 00:37:39.511721932,E4_Acc,2024-06-28 15:22:29.196929932,-15.0,-62.0,10.0
1904-01-01 00:37:39.542981945,E4_Acc,2024-06-28 15:22:29.228189945,-15.0,-62.0,10.0
1904-01-01 00:37:39.574231945,E4_Acc,2024-06-28 15:22:29.259439945,-16.0,-61.0,8.0
1904-01-01 00:37:39.605481945,E4_Acc,2024-06-28 15:22:29.290689945,-16.0,-61.0,8.0
1904-01-01 00:37:39.636731945,E4_Acc,2024-06-28 15:22:29.321939945,-17.0,-62.0,9.0
1904-01-01 00:37:39.667981945,E4_Acc,2024-06-28 15:22:29.353189945,-17.0,-61.0,10.0
1904-01-01 00:37:39.699231945,E4_Acc,2024-06-28 15:22:29.384439945,-17.0,-62.0,9.0
1904-01-01 00:37:39.730481945,E4_Acc,2024-06-28 15:22:29.415689945,-18.0,-62.0,8.0
1904-01-01 00:37:39.761741959,E4_Acc,2024-06-28 15:22:29.446949959,-18.0,-62.0,9.0
1904-01-01 00:37:39.792991959,E4_Acc,2024-06-28 15:22:29.478199959,-18.0,-62.0,10.0
1904-01-01 00:37:39.824241959,E4_Acc,2024-06-28 15:22:29.509449959,-17.0,-62.0,10.0
1904-01-01 00:37:39.855491959,E4_Acc,2024-06-28 15:22:29.540699959,-18.0,-61.0,10.0
1904-01-01 00:37:39.886741959,E4_Acc,2024-06-28 15:22:29.571949959,-18.0,-63.0,10.0
1904-01-01 00:37:39.917991959,E4_Acc,2024-06-28 15:22:29.603199959,-18.0,-62.0,11.0
1904-01-01 00:37:39.949241959,E4_Acc,2024-06-28 15:22:29.634449959,-17.0,-61.0,12.0
1904-01-01 00:37:39.980501972,E4_Acc,2024-06-28 15:22:29.665709972,-18.0,-62.0,11.0
1904-01-01 00:37:40.011751972,E4_Acc,2024-06-28 15:22:29.696959972,-17.0,-61.0,7.0
1904-01-01 00:37:40.043001972,E4_Acc,2024-06-28 15:22:29.728209972,-16.0,-62.0,7.0
1904-01-01 00:37:40.074251972,E4_Acc,2024-06-28 15:22:29.759459972,-16.0,-63.0,8.0
1904-01-01 00:37:40.105501972,E4_Acc,2024-06-28 15:22:29.790709972,-15.0,-62.0,10.0
1904-01-01 00:37:40.136751972,E4_Acc,2024-06-28 15:22:29.821959972,-16.0,-63.0,11.0
1904-01-01 00:37:40.168011986,E4_Acc,2024-06-28 15:22:29.853219986,-15.0,-62.0,13.0
1904-01-01 00:37:40.199261986,E4_Acc,2024-06-28 15:22:29.884469986,-16.0,-63.0,10.0
1904-01-01 00:37:40.230511986,E4_Acc,2024-06-28 15:22:29.915719986,-16.0,-62.0,10.0
1904-01-01 00:37:40.261761986,E4_Acc,2024-06-28 15:22:29.946969986,-15.0,-62.0,11.0
1904-01-01 00:37:40.293011986,E4_Acc,2024-06-28 15:22:29.978219986,-14.0,-62.0,11.0
1904-01-01 00:37:40.324261986,E4_Acc,2024-06-28 15:22:30.009469986,-13.0,-62.0,12.0
1904-01-01 00:37:40.355511986,E4_Acc,2024-06-28 15:22:30.040719986,-14.0,-62.0,9.0
1904-01-01 00:37:40.386772000,E4_Acc,2024-06-28 15:22:30.071980000,-14.0,-62.0,9.0
1904-01-01 00:37:40.418022000,E4_Acc,2024-06-28 15:22:30.103230000,-15.0,-62.0,10.0
1904-01-01 00:37:40.449272000,E4_Acc,2024-06-28 15:22:30.134480000,-15.0,-62.0,10.0
1904-01-01 00:37:40.480522000,E4_Acc,2024-06-28 15:22:30.165730000,-16.0,-63.0,11.0
1904-01-01 00:37:40.511772000,E4_Acc,2024-06-28 15:22:30.196980000,-17.0,-63.0,10.0
1904-01-01 00:37:40.543022000,E4_Acc,2024-06-28 15:22:30.228230000,-16.0,-62.0,10.0
1904-01-01 00:37:40.574272000,E4_Acc,2024-06-28 15:22:30.259480000,-14.0,-62.0,10.0
1904-01-01 00:37:40.605532013,E4_Acc,2024-06-28 15:22:30.290740013,-14.0,-62.0,10.0
1904-01-01 00:37:40.636782013,E4_Acc,2024-06-28 15:22:30.321990013,-14.0,-62.0,10.0
1904-01-01 00:37:40.668032013,E4_Acc,2024-06-28 15:22:30.353240013,-15.0,-62.0,10.0
1904-01-01 00:37:40.699282013,E4_Acc,2024-06-28 15:22:30.384490013,-14.0,-62.0,10.0
1904-01-01 00:37:40.730532013,E4_Acc,2024-06-28 15:22:30.415740013,-14.0,-63.0,11.0
1904-01-01 00:37:40.761782013,E4_Acc,2024-06-28 15:22:30.446990013,-14.0,-63.0,11.0
1904-01-01 00:37:40.793032013,E4_Acc,2024-06-28 15:22:30.478240013,-13.0,-63.0,10.0
1904-01-01 00:37:40.824292026,E4_Acc,2024-06-28 15:22:30.509500026,-14.0,-62.0,9.0
1904-01-01 00:37:40.855542027,E4_Acc,2024-06-28 15:22:30.540750027,-14.0,-62.0,10.0
1904-01-01 00:37:40.886792027,E4_Acc,2024-06-28 15:22:30.572000027,-14.0,-63.0,10.0
1904-01-01 00:37:40.918042027,E4_Acc,2024-06-28 15:22:30.603250027,-13.0,-63.0,10.0
1904-01-01 00:37:40.949292027,E4_Acc,2024-06-28 15:22:30.634500027,-14.0,-63.0,9.0
1904-01-01 00:37:40.980542027,E4_Acc,2024-06-28 15:22:30.665750027,-14.0,-63.0,11.0
1904-01-01 00:37:41.011792027,E4_Acc,2024-06-28 15:22:30.697000027,-14.0,-63.0,10.0
1904-01-01 00:37:41.043052040,E4_Acc,2024-06-28 15:22:30.728260040,-14.0,-63.0,11.0
1904-01-01 00:37:41.074302040,E4_Acc,2024-06-28 15:22:30.759510040,-15.0,-62.0,10.0
1904-01-01 00:37:41.105552040,E4_Acc,2024-06-28 15:22:30.790760040,-15.0,-63.0,9.0
1904-01-01 00:37:41.136802040,E4_Acc,2024-06-28 15:22:30.822010040,-15.0,-62.0,11.0
1904-01-01 00:37:41.168052040,E4_Acc,2024-06-28 15:22:30.853260040,-15.0,-62.0,10.0
1904-01-01 00:37:41.199302040,E4_Acc,2024-06-28 15:22:30.884510040,-14.0,-62.0,10.0
1904-01-01 00:37:41.230552040,E4_Acc,2024-06-28 15:22:30.915760040,-14.0,-63.0,10.0
1904-01-01 00:37:41.261812054,E4_Acc,2024-06-28 15:22:30.947020054,-14.0,-63.0,9.0
1904-01-01 00:37:41.293062054,E4_Acc,2024-06-28 15:22:30.978270054,-13.0,-63.0,9.0
