Seconds,Stream,E4_Seconds,AccX,AccY,AccZ
1904-01-01 00:43:31.616992017,E4_Acc,2024-06-28 14:01:58.591480017,11.0,63.0,9.0
1904-01-01 00:43:31.648252030,E4_Acc,2024-06-28 14:01:58.622740030,11.0,63.0,9.0
1904-01-01 00:43:31.679502030,E4_Acc,2024-06-28 14:01:58.653990030,11.0,63.0,9.0
1904-01-01 00:43:31.710752030,E4_Acc,2024-06-28 14:01:58.685240030,11.0,63.0,9.0
1904-01-01 00:43:31.742002030,E4_Acc,2024-06-28 14:01:58.716490030,11.0,63.0,8.0
1904-01-01 00:43:31.773252030,E4_Acc,2024-06-28 14:01:58.747740030,11.0,63.0,9.0
1904-01-01 00:43:31.804502030,E4_Acc,2024-06-28 14:01:58.778990030,11.0,63.0,9.0
1904-01-01 00:43:31.835752030,E4_Acc,2024-06-28 14:01:58.810240030,11.0,63.0,9.0
1904-01-01 00:43:31.867012044,E4_Acc,2024-06-28 14:01:58.841500044,11.0,63.0,9.0
1904-01-01 00:43:31.898262044,E4_Acc,2024-06-28 14:01:58.872750044,11.0,63.0,9.0
1904-01-01 00:43:31.929512044,E4_Acc,2024-06-28 14:01:58.904000044,12.0,63.0,9.0
1904-01-01 00:43:31.960762044,E4_Acc,2024-06-28 14:01:58.935250044,12.0,63.0,8.0
1904-01-01 00:43:31.992012044,E4_Acc,2024-06-28 14:01:58.966500044,12.0,63.0,8.0
1904-01-01 00:43:32.023262044,E4_Acc,2024-06-28 14:01:58.997750044,12.0,62.0,8.0
1904-01-01 00:43:32.054512044,E4_Acc,2024-06-28 14:01:59.029000044,12.0,63.0,8.0
1904-01-01 00:43:32.085772057,E4_Acc,2024-06-28 14:01:59.060260057,12.0,63.0,8.0
1904-01-01 00:43:32.117022057,E4_Acc,2024-06-28 14:01:59.091510057,12.0,63.0,9.0
1904-01-01 00:43:32.148272057,E4_Acc,2024-06-28 14:01:59.122760057,11.0,62.0,9.0
1904-01-01 00:43:32.179522057,E4_Acc,2024-06-28 14:01:59.154010057,12.0,62.0,8.0
1904-01-01 00:43:32.210772057,E4_Acc,2024-06-28 14:01:59.185260057,12.0,63.0,9.0
1904-01-01 00:43:32.242022057,E4_Acc,2024-06-28 14:01:59.216510057,12.0,63.0,8.0
1904-01-01 00:43:32.273272057,E4_Acc,2024-06-28 14:01:59.247760057,11.0,63.0,9.0
1904-01-01 00:43:32.304532071,E4_Acc,2024-06-28 14:01:59.279020071,11.0,63.0,9.0
1904-01-01 00:43:32.335782071,E4_Acc,2024-06-28 14:01:59.310270071,11.0,63.0,9.0
1904-01-01 00:43:32.367032071,E4_Acc,2024-06-28 14:01:59.341520071,10.0,63.0,9.0
1904-01-01 00:43:32.398282071,E4_Acc,2024-06-28 14:01:59.372770071,11.0,63.0,9.0
1904-01-01 00:43:32.429532071,E4_Acc,2024-06-28 14:01:59.404020071,11.0,63.0,8.0
1904-01-01 00:43:32.460782071,E4_Acc,2024-06-28 14:01:59.435270071,11.0,63.0,8.0
1904-01-01 00:43:32.492032071,E4_Acc,2024-06-28 14:01:59.466520071,11.0,63.0,8.0
1904-01-01 00:43:32.523292085,E4_Acc,2024-06-28 14:01:59.497780085,11.0,63.0,8.0
1904-01-01 00:43:32.554542085,E4_Acc,2024-06-28 14:01:59.529030085,11.0,63.0,8.0
1904-01-01 00:43:32.585792085,E4_Acc,2024-06-28 14:01:59.560280085,11.0,62.0,8.0
1904-01-01 00:43:32.617042085,E4_Acc,2024-06-28 14:01:59.591530085,11.0,63.0,8.0
1904-01-01 00:43:32.648292085,E4_Acc,2024-06-28 14:01:59.622780085,12.0,63.0,8.0
1904-01-01 00:43:32.679542085,E4_Acc,2024-06-28 14:01:59.654030085,12.0,63.0,8.0
1904-01-01 00:43:32.710792085,E4_Acc,2024-06-28 14:01:59.685280085,12.0,63.0,9.0
1904-01-01 00:43:32.742052098,E4_Acc,2024-06-28 14:01:59.716540098,11.0,63.0,9.0
1904-01-01 00:43:32.773302098,E4_Acc,2024-06-28 14:01:59.747790098,12.0,63.0,9.0
1904-01-01 00:43:32.804552098,E4_Acc,2024-06-28 14:01:59.779040098,11.0,63.0,9.0
1904-01-01 00:43:32.835802098,E4_Acc,2024-06-28 14:01:59.810290098,11.0,63.0,9.0
1904-01-01 00:43:32.867052098,E4_Acc,2024-06-28 14:01:59.841540098,12.0,63.0,9.0
1904-01-01 00:43:32.898302098,E4_Acc,2024-06-28 14:01:59.872790098,12.0,63.0,9.0
1904-01-01 00:43:32.929552098,E4_Acc,2024-06-28 14:01:59.904040098,11.0,63.0,9.0
1904-01-01 00:43:32.960812112,E4_Acc,2024-06-28 14:01:59.935300112,11.0,63.0,8.0
1904-01-01 00:43:32.992062112,E4_Acc,2024-06-28 14:01:59.966550112,11.0,63.0,9.0
1904-01-01 00:43:33.023312112,E4_Acc,2024-06-28 14:01:59.997800112,11.0,62.0,8.0
1904-01-01 00:43:33.054562112,E4_Acc,2024-06-28 14:02:00.029050112,11.0,62.0,9.0
1904-01-01 00:43:33.085812112,E4_Acc,2024-06-28 14:02:00.060300112,11.0,63.0,9.0
1904-01-01 00:43:33.117062112,E4_Acc,2024-06-28 14:02:00.091550112,12.0,63.0,9.0
1904-01-01 00:43:33.148312112,E4_Acc,2024-06-28 14:02:00.122800112,12.0,62.0,9.0
1904-01-01 00:43:33.179571887,E4_Acc,2024-06-28 14:02:00.154059887,11.0,62.0,9.0
1904-01-01 00:43:33.210821887,E4_Acc,2024-06-28 14:02:00.185309887,12.0,63.0,9.0
1904-01-01 00:43:33.242071887,E4_Acc,2024-06-28 14:02:00.216559887,12.0,63.0,9.0
1904-01-01 00:43:33.273321887,E4_Acc,2024-06-28 14:02:00.247809887,12.0,63.0,9.0
1904-01-01 00:43:33.304571887,E4_Acc,2024-06-28 14:02:00.279059887,11.0,63.0,9.0
1904-01-01 00:43:33.335821887,E4_Acc,2024-06-28 14:02:00.310309887,11.0,63.0,9.0
1904-01-01 00:43:33.367071887,E4_Acc,2024-06-28 14:02:00.341559887,12.0,63.0,9.0
1904-01-01 00:43:33.398331901,E4_Acc,2024-06-28 14:02:00.372819901,12.0,63.0,9.0
1904-01-01 00:43:33.429581901,E4_Acc,2024-06-28 14:02:00.404069901,11.0,63.0,9.0
1904-01-01 00:43:33.460831901,E4_Acc,2024-06-28 14:02:00.435319901,12.0,63.0,9.0
1904-01-01 00:43:33.492081901,E4_Acc,2024-06-28 14:02:00.466569901,12.0,62.0,9.0
1904-01-01 00:43:33.523331901,E4_Acc,2024-06-28 14:02:00.497819901,12.0,62.0,9.0
1904-01-01 00:43:33.554581900,E4_Acc,2024-06-28 14:02:00.529069900,12.0,63.0,9.0
1904-01-01 00:43:33.585841914,E4_Acc,2024-06-28 14:02:00.560329914,12.0,62.0,8.0
1904-01-01 00:43:33.617091914,E4_Acc,2024-06-28 14:02:00.591579914,12.0,62.0,8.0
1904-01-01 00:43:33.648341914,E4_Acc,2024-06-28 14:02:00.622829914,12.0,63.0,9.0
1904-01-01 00:43:33.679591914,E4_Acc,2024-06-28 14:02:00.654079914,12.0,62.0,9.0
1904-01-01 00:43:33.710841914,E4_Acc,2024-06-28 14:02:00.685329914,12.0,62.0,9.0
1904-01-01 00:43:33.742091914,E4_Acc,2024-06-28 14:02:00.716579914,12.0,63.0,9.0
1904-01-01 00:43:33.773341914,E4_Acc,2024-06-28 14:02:00.747829914,12.0,62.0,9.0
1904-01-01 00:43:33.804601928,E4_Acc,2024-06-28 14:02:00.779089928,12.0,63.0,9.0
1904-01-01 00:43:33.835851928,E4_Acc,2024-06-28 14:02:00.810339928,12.0,63.0,9.0
1904-01-01 00:43:33.867101928,E4_Acc,2024-06-28 14:02:00.841589928,12.0,62.0,9.0
1904-01-01 00:43:33.898351928,E4_Acc,2024-06-28 14:02:00.872839928,12.0,63.0,9.0
1904-01-01 00:43:33.929601928,E4_Acc,2024-06-28 14:02:00.904089928,11.0,63.0,9.0
1904-01-01 00:43:33.960851928,E4_Acc,2024-06-28 14:02:00.935339928,12.0,63.0,9.0
1904-01-01 00:43:33.992101928,E4_Acc,2024-06-28 14:02:00.966589928,12.0,63.0,9.0
1904-01-01 00:43:34.023361941,E4_Acc,2024-06-28 14:02:00.997849941,11.0,63.0,9.0
1904-01-01 00:43:34.054611941,E4_Acc,2024-06-28 14:02:01.029099941,12.0,63.0,9.0
1904-01-01 00:43:34.085861941,E4_Acc,2024-06-28 14:02:01.060349941,12.0,63.0,9.0
1904-01-01 00:43:34.117111941,E4_Acc,2024-06-28 14:02:01.091599941,12.0,62.0,8.0
1904-01-01 00:43:34.148361941,E4_Acc,2024-06-28 14:02:01.122849941,12.0,62.0,8.0
1904-01-01 00:43:34.179611941,E4_Acc,2024-06-28 14:02:01.154099941,12.0,63.0,8.0
1904-01-01 00:43:34.210861941,E4_Acc,2024-06-28 14:02:01.185349941,12.0,63.0,8.0
1904-01-01 00:43:34.242121955,E4_Acc,2024-06-28 14:02:01.216609955,12.0,63.0,8.0
1904-01-01 00:43:34.273371955,E4_Acc,2024-06-28 14:02:01.247859955,11.0,63.0,8.0
1904-01-01 00:43:34.304621955,E4_Acc,2024-06-28 14:02:01.279109955,11.0,63.0,9.0
1904-01-01 00:43:34.335871955,E4_Acc,2024-06-28 14:02:01.310359955,11.0,63.0,9.0
1904-01-01 00:43:34.367121955,E4_Acc,2024-06-28 14:02:01.341609955,11.0,63.0,9.0
1904-01-01 00:43:34.398371955,E4_Acc,2024-06-28 14:02:01.372859955,11.0,63.0,9.0
1904-01-01 00:43:34.429621955,E4_Acc,2024-06-28 14:02:01.404109955,11.0,63.0,9.0
1904-01-01 00:43:34.460881968,E4_Acc,2024-06-28 14:02:01.435369968,11.0,63.0,9.0
1904-01-01 00:43:34.492131968,E4_Acc,2024-06-28 14:02:01.466619968,11.0,63.0,9.0
1904-01-01 00:43:34.523381968,E4_Acc,2024-06-28 14:02:01.497869968,12.0,63.0,9.0
1904-01-01 00:43:34.554631968,E4_Acc,2024-06-28 14:02:01.529119968,12.0,63.0,9.0
1904-01-01 00:43:34.585881968,E4_Acc,2024-06-28 14:02:01.560369968,12.0,63.0,8.0
1904-01-01 00:43:34.617131968,E4_Acc,2024-06-28 14:02:01.591619968,12.0,63.0,8.0
1904-01-01 00:43:34.648381968,E4_Acc,2024-06-28 14:02:01.622869968,12.0,62.0,8.0
1904-01-01 00:43:34.679641982,E4_Acc,2024-06-28 14:02:01.654129982,12.0,63.0,8.0
1904-01-01 00:43:34.710891982,E4_Acc,2024-06-28 14:02:01.685379982,12.0,63.0,8.0
1904-01-01 00:43:34.742141982,E4_Acc,2024-06-28 14:02:01.716629982,12.0,62.0,7.0
1904-01-01 00:43:34.773391982,E4_Acc,2024-06-28 14:02:01.747879982,12.0,63.0,8.0
1904-01-01 00:43:34.804641982,E4_Acc,2024-06-28 14:02:01.779129982,12.0,62.0,8.0
1904-01-01 00:43:34.835891982,E4_Acc,2024-06-28 14:02:01.810379982,12.0,62.0,9.0
1904-01-01 00:43:34.867141982,E4_Acc,2024-06-28 14:02:01.841629982,12.0,63.0,9.0
1904-01-01 00:43:34.898401996,E4_Acc,2024-06-28 14:02:01.872889996,12.0,63.0,9.0
1904-01-01 00:43:34.929651996,E4_Acc,2024-06-28 14:02:01.904139996,11.0,63.0,9.0
1904-01-01 00:43:34.960901996,E4_Acc,2024-06-28 14:02:01.935389996,11.0,63.0,9.0
1904-01-01 00:43:34.992151996,E4_Acc,2024-06-28 14:02:01.966639996,11.0,63.0,9.0
1904-01-01 00:43:35.023401996,E4_Acc,2024-06-28 14:02:01.997889996,11.0,63.0,9.0
1904-01-01 00:43:35.054651996,E4_Acc,2024-06-28 14:02:02.029139996,11.0,63.0,8.0
1904-01-01 00:43:35.085901996,E4_Acc,2024-06-28 14:02:02.060389996,11.0,63.0,8.0
1904-01-01 00:43:35.117162009,E4_Acc,2024-06-28 14:02:02.091650009,11.0,63.0,8.0
1904-01-01 00:43:35.148412009,E4_Acc,2024-06-28 14:02:02.122900009,12.0,63.0,8.0
1904-01-01 00:43:35.179662009,E4_Acc,2024-06-28 14:02:02.154150009,12.0,62.0,8.0
1904-01-01 00:43:35.210912009,E4_Acc,2024-06-28 14:02:02.185400009,12.0,63.0,8.0
1904-01-01 00:43:35.242162009,E4_Acc,2024-06-28 14:02:02.216650009,12.0,63.0,8.0
1904-01-01 00:43:35.273412009,E4_Acc,2024-06-28 14:02:02.247900009,12.0,63.0,8.0
1904-01-01 00:43:35.304662009,E4_Acc,2024-06-28 14:02:02.279150009,12.0,63.0,8.0
1904-01-01 00:43:35.335922023,E4_Acc,2024-06-28 14:02:02.310410023,11.0,63.0,8.0
1904-01-01 00:43:35.367172023,E4_Acc,2024-06-28 14:02:02.341660023,12.0,63.0,9.0
1904-01-01 00:43:35.398422023,E4_Acc,2024-06-28 14:02:02.372910023,12.0,63.0,9.0
1904-01-01 00:43:35.429672023,E4_Acc,2024-06-28 14:02:02.404160023,11.0,63.0,9.0
1904-01-01 00:43:35.460922023,E4_Acc,2024-06-28 14:02:02.435410023,12.0,63.0,9.0
1904-01-01 00:43:35.492172023,E4_Acc,2024-06-28 14:02:02.466660023,11.0,63.0,9.0
1904-01-01 00:43:35.523422023,E4_Acc,2024-06-28 14:02:02.497910023,11.0,63.0,9.0
1904-01-01 00:43:35.554682036,E4_Acc,2024-06-28 14:02:02.529170036,12.0,63.0,9.0
1904-01-01 00:43:35.585932036,E4_Acc,2024-06-28 14:02:02.560420036,11.0,63.0,9.0
1904-01-01 00:43:35.617182036,E4_Acc,2024-06-28 14:02:02.591670036,11.0,62.0,9.0
1904-01-01 00:43:35.648432036,E4_Acc,2024-06-28 14:02:02.622920036,11.0,63.0,8.0
1904-01-01 00:43:35.679682036,E4_Acc,2024-06-28 14:02:02.654170036,12.0,63.0,8.0
1904-01-01 00:43:35.710932036,E4_Acc,2024-06-28 14:02:02.685420036,12.0,63.0,8.0
1904-01-01 00:43:35.742192050,E4_Acc,2024-06-28 14:02:02.716680050,12.0,63.0,8.0
1904-01-01 00:43:35.773442050,E4_Acc,2024-06-28 14:02:02.747930050,12.0,63.0,8.0
1904-01-01 00:43:35.804692050,E4_Acc,2024-06-28 14:02:02.779180050,12.0,63.0,8.0
1904-01-01 00:43:35.835942050,E4_Acc,2024-06-28 14:02:02.810430050,12.0,63.0,9.0
1904-01-01 00:43:35.867192050,E4_Acc,2024-06-28 14:02:02.841680050,12.0,62.0,9.0
1904-01-01 00:43:35.898442050,E4_Acc,2024-06-28 14:02:02.872930050,12.0,63.0,9.0
1904-01-01 00:43:35.929692050,E4_Acc,2024-06-28 14:02:02.904180050,11.0,63.0,9.0
1904-01-01 00:43:35.960952063,E4_Acc,2024-06-28 14:02:02.935440063,12.0,63.0,9.0
1904-01-01 00:43:35.992202063,E4_Acc,2024-06-28 14:02:02.966690063,11.0,62.0,9.0
1904-01-01 00:43:36.023452063,E4_Acc,2024-06-28 14:02:02.997940063,11.0,63.0,9.0
1904-01-01 00:43:36.054702063,E4_Acc,2024-06-28 14:02:03.029190063,11.0,62.0,9.0
1904-01-01 00:43:36.085952063,E4_Acc,2024-06-28 14:02:03.060440063,12.0,62.0,8.0
1904-01-01 00:43:36.117202063,E4_Acc,2024-06-28 14:02:03.091690063,12.0,63.0,8.0
1904-01-01 00:43:36.148452063,E4_Acc,2024-06-28 14:02:03.122940063,13.0,62.0,8.0
1904-01-01 00:43:36.179712077,E4_Acc,2024-06-28 14:02:03.154200077,12.0,62.0,8.0
1904-01-01 00:43:36.210962077,E4_Acc,2024-06-28 14:02:03.185450077,12.0,62.0,8.0
1904-01-01 00:43:36.242212077,E4_Acc,2024-06-28 14:02:03.216700077,12.0,62.0,9.0
1904-01-01 00:43:36.273462077,E4_Acc,2024-06-28 14:02:03.247950077,12.0,63.0,10.0
1904-01-01 00:43:36.304712077,E4_Acc,2024-06-28 14:02:03.279200077,12.0,63.0,10.0
1904-01-01 00:43:36.335962077,E4_Acc,2024-06-28 14:02:03.310450077,12.0,63.0,10.0
1904-01-01 00:43:36.367212077,E4_Acc,2024-06-28 14:02:03.341700077,12.0,63.0,10.0
1904-01-01 00:43:36.398472091,E4_Acc,2024-06-28 14:02:03.372960091,12.0,63.0,10.0
1904-01-01 00:43:36.429722091,E4_Acc,2024-06-28 14:02:03.404210091,12.0,63.0,10.0
1904-01-01 00:43:36.460972091,E4_Acc,2024-06-28 14:02:03.435460091,13.0,63.0,10.0
1904-01-01 00:43:36.492222091,E4_Acc,2024-06-28 14:02:03.466710091,13.0,62.0,9.0
1904-01-01 00:43:36.523472091,E4_Acc,2024-06-28 14:02:03.497960091,13.0,60.0,9.0
1904-01-01 00:43:36.554722091,E4_Acc,2024-06-28 14:02:03.529210091,13.0,62.0,10.0
1904-01-01 00:43:36.585972091,E4_Acc,2024-06-28 14:02:03.560460091,13.0,62.0,9.0
1904-01-01 00:43:36.617232104,E4_Acc,2024-06-28 14:02:03.591720104,14.0,62.0,9.0
1904-01-01 00:43:36.648482104,E4_Acc,2024-06-28 14:02:03.622970104,14.0,63.0,10.0
1904-01-01 00:43:36.679732104,E4_Acc,2024-06-28 14:02:03.654220104,14.0,63.0,10.0
1904-01-01 00:43:36.710982104,E4_Acc,2024-06-28 14:02:03.685470104,14.0,63.0,10.0
1904-01-01 00:43:36.742232104,E4_Acc,2024-06-28 14:02:03.716720104,13.0,63.0,10.0
1904-01-01 00:43:36.773482104,E4_Acc,2024-06-28 14:02:03.747970104,12.0,63.0,10.0
1904-01-01 00:43:36.804732104,E4_Acc,2024-06-28 14:02:03.779220104,11.0,63.0,9.0
1904-01-01 00:43:36.835992118,E4_Acc,2024-06-28 14:02:03.810480118,10.0,62.0,8.0
1904-01-01 00:43:36.867242118,E4_Acc,2024-06-28 14:02:03.841730118,11.0,62.0,8.0
1904-01-01 00:43:36.898492118,E4_Acc,2024-06-28 14:02:03.872980118,11.0,63.0,7.0
1904-01-01 00:43:36.929742118,E4_Acc,2024-06-28 14:02:03.904230118,11.0,63.0,7.0
1904-01-01 00:43:36.960992118,E4_Acc,2024-06-28 14:02:03.935480118,10.0,63.0,7.0
1904-01-01 00:43:36.992242118,E4_Acc,2024-06-28 14:02:03.966730118,10.0,62.0,7.0
1904-01-01 00:43:37.023492118,E4_Acc,2024-06-28 14:02:03.997980118,10.0,62.0,7.0
1904-01-01 00:43:37.054751893,E4_Acc,2024-06-28 14:02:04.029239893,11.0,61.0,6.0
1904-01-01 00:43:37.086001893,E4_Acc,2024-06-28 14:02:04.060489893,11.0,62.0,8.0
1904-01-01 00:43:37.117251893,E4_Acc,2024-06-28 14:02:04.091739893,12.0,61.0,7.0
1904-01-01 00:43:37.148501893,E4_Acc,2024-06-28 14:02:04.122989893,14.0,63.0,8.0
1904-01-01 00:43:37.179751893,E4_Acc,2024-06-28 14:02:04.154239893,13.0,63.0,9.0
1904-01-01 00:43:37.211001893,E4_Acc,2024-06-28 14:02:04.185489893,13.0,62.0,8.0
1904-01-01 00:43:37.242251893,E4_Acc,2024-06-28 14:02:04.216739893,14.0,63.0,9.0
1904-01-01 00:43:37.273511907,E4_Acc,2024-06-28 14:02:04.247999907,14.0,63.0,8.0
1904-01-01 00:43:37.304761907,E4_Acc,2024-06-28 14:02:04.279249907,13.0,64.0,8.0
1904-01-01 00:43:37.336011907,E4_Acc,2024-06-28 14:02:04.310499907,13.0,65.0,8.0
1904-01-01 00:43:37.367261907,E4_Acc,2024-06-28 14:02:04.341749907,11.0,64.0,7.0
1904-01-01 00:43:37.398511907,E4_Acc,2024-06-28 14:02:04.372999907,11.0,64.0,6.0
1904-01-01 00:43:37.429761907,E4_Acc,2024-06-28 14:02:04.404249907,10.0,64.0,7.0
1904-01-01 00:43:37.461011907,E4_Acc,2024-06-28 14:02:04.435499907,8.0,63.0,6.0
1904-01-01 00:43:37.492271920,E4_Acc,2024-06-28 14:02:04.466759920,8.0,63.0,6.0
1904-01-01 00:43:37.523521920,E4_Acc,2024-06-28 14:02:04.498009920,9.0,64.0,6.0
1904-01-01 00:43:37.554771920,E4_Acc,2024-06-28 14:02:04.529259920,9.0,64.0,6.0
1904-01-01 00:43:37.586021920,E4_Acc,2024-06-28 14:02:04.560509920,8.0,64.0,6.0
1904-01-01 00:43:37.617271920,E4_Acc,2024-06-28 14:02:04.591759920,9.0,63.0,5.0
1904-01-01 00:43:37.648521920,E4_Acc,2024-06-28 14:02:04.623009920,9.0,63.0,6.0
1904-01-01 00:43:37.679771920,E4_Acc,2024-06-28 14:02:04.654259920,9.0,64.0,6.0
1904-01-01 00:43:37.711031934,E4_Acc,2024-06-28 14:02:04.685519934,10.0,63.0,7.0
1904-01-01 00:43:37.742281934,E4_Acc,2024-06-28 14:02:04.716769934,12.0,63.0,8.0
1904-01-01 00:43:37.773531934,E4_Acc,2024-06-28 14:02:04.748019934,14.0,62.0,9.0
1904-01-01 00:43:37.804781934,E4_Acc,2024-06-28 14:02:04.779269934,14.0,63.0,9.0
1904-01-01 00:43:37.836031934,E4_Acc,2024-06-28 14:02:04.810519934,13.0,64.0,8.0
1904-01-01 00:43:37.867281934,E4_Acc,2024-06-28 14:02:04.841769934,12.0,64.0,8.0
1904-01-01 00:43:37.898531934,E4_Acc,2024-06-28 14:02:04.873019934,12.0,62.0,7.0
1904-01-01 00:43:37.929791947,E4_Acc,2024-06-28 14:02:04.904279947,11.0,62.0,7.0
1904-01-01 00:43:37.961041947,E4_Acc,2024-06-28 14:02:04.935529947,11.0,62.0,7.0
1904-01-01 00:43:37.992291947,E4_Acc,2024-06-28 14:02:04.966779947,11.0,63.0,8.0
1904-01-01 00:43:38.023541947,E4_Acc,2024-06-28 14:02:04.998029947,11.0,62.0,8.0
1904-01-01 00:43:38.054791947,E4_Acc,2024-06-28 14:02:05.029279947,13.0,62.0,9.0
1904-01-01 00:43:38.086041947,E4_Acc,2024-06-28 14:02:05.060529947,13.0,62.0,8.0
1904-01-01 00:43:38.117291947,E4_Acc,2024-06-28 14:02:05.091779947,12.0,63.0,8.0
1904-01-01 00:43:38.148551961,E4_Acc,2024-06-28 14:02:05.123039961,11.0,63.0,7.0
1904-01-01 00:43:38.179801961,E4_Acc,2024-06-28 14:02:05.154289961,11.0,63.0,7.0
1904-01-01 00:43:38.211051961,E4_Acc,2024-06-28 14:02:05.185539961,11.0,62.0,7.0
1904-01-01 00:43:38.242301961,E4_Acc,2024-06-28 14:02:05.216789961,9.0,62.0,8.0
1904-01-01 00:43:38.273551961,E4_Acc,2024-06-28 14:02:05.248039961,10.0,62.0,8.0
1904-01-01 00:43:38.304801961,E4_Acc,2024-06-28 14:02:05.279289961,11.0,62.0,9.0
1904-01-01 00:43:38.336051961,E4_Acc,2024-06-28 14:02:05.310539961,12.0,62.0,10.0
1904-01-01 00:43:38.367311974,E4_Acc,2024-06-28 14:02:05.341799974,12.0,63.0,9.0
1904-01-01 00:43:38.398561974,E4_Acc,2024-06-28 14:02:05.373049974,12.0,63.0,9.0
1904-01-01 00:43:38.429811974,E4_Acc,2024-06-28 14:02:05.404299974,11.0,63.0,8.0
1904-01-01 00:43:38.461061974,E4_Acc,2024-06-28 14:02:05.435549974,11.0,64.0,8.0
1904-01-01 00:43:38.492311974,E4_Acc,2024-06-28 14:02:05.466799974,11.0,63.0,8.0
1904-01-01 00:43:38.523561974,E4_Acc,2024-06-28 14:02:05.498049974,10.0,63.0,7.0
1904-01-01 00:43:38.554821987,E4_Acc,2024-06-28 14:02:05.529309987,10.0,64.0,8.0
1904-01-01 00:43:38.586071988,E4_Acc,2024-06-28 14:02:05.560559988,10.0,63.0,8.0
1904-01-01 00:43:38.617321988,E4_Acc,2024-06-28 14:02:05.591809988,10.0,62.0,8.0
1904-01-01 00:43:38.648571988,E4_Acc,2024-06-28 14:02:05.623059988,10.0,62.0,9.0
1904-01-01 00:43:38.679821988,E4_Acc,2024-06-28 14:02:05.654309988,10.0,63.0,8.0
1904-01-01 00:43:38.711071988,E4_Acc,2024-06-28 14:02:05.685559988,10.0,65.0,8.0
1904-01-01 00:43:38.742321988,E4_Acc,2024-06-28 14:02:05.716809988,10.0,65.0,8.0
1904-01-01 00:43:38.773582002,E4_Acc,2024-06-28 14:02:05.748070002,9.0,63.0,7.0
1904-01-01 00:43:38.804832002,E4_Acc,2024-06-28 14:02:05.779320002,10.0,62.0,8.0
1904-01-01 00:43:38.836082002,E4_Acc,2024-06-28 14:02:05.810570002,9.0,62.0,7.0
1904-01-01 00:43:38.867332002,E4_Acc,2024-06-28 14:02:05.841820002,8.0,63.0,7.0
1904-01-01 00:43:38.898582002,E4_Acc,2024-06-28 14:02:05.873070002,9.0,63.0,8.0
1904-01-01 00:43:38.929832002,E4_Acc,2024-06-28 14:02:05.904320002,11.0,63.0,7.0
1904-01-01 00:43:38.961082002,E4_Acc,2024-06-28 14:02:05.935570002,12.0,63.0,8.0
1904-01-01 00:43:38.992342015,E4_Acc,2024-06-28 14:02:05.966830015,12.0,62.0,7.0
1904-01-01 00:43:39.023592015,E4_Acc,2024-06-28 14:02:05.998080015,12.0,62.0,7.0
1904-01-01 00:43:39.054842015,E4_Acc,2024-06-28 14:02:06.029330015,12.0,62.0,7.0
1904-01-01 00:43:39.086092015,E4_Acc,2024-06-28 14:02:06.060580015,12.0,63.0,8.0
1904-01-01 00:43:39.117342015,E4_Acc,2024-06-28 14:02:06.091830015,12.0,63.0,8.0
1904-01-01 00:43:39.148592015,E4_Acc,2024-06-28 14:02:06.123080015,12.0,63.0,8.0
1904-01-01 00:43:39.179842015,E4_Acc,2024-06-28 14:02:06.154330015,11.0,63.0,8.0
1904-01-01 00:43:39.211102029,E4_Acc,2024-06-28 14:02:06.185590029,10.0,63.0,8.0
1904-01-01 00:43:39.242352029,E4_Acc,2024-06-28 14:02:06.216840029,11.0,63.0,8.0
1904-01-01 00:43:39.273602029,E4_Acc,2024-06-28 14:02:06.248090029,12.0,63.0,9.0
1904-01-01 00:43:39.304852029,E4_Acc,2024-06-28 14:02:06.279340029,12.0,63.0,10.0
1904-01-01 00:43:39.336102029,E4_Acc,2024-06-28 14:02:06.310590029,12.0,64.0,10.0
1904-01-01 00:43:39.367352029,E4_Acc,2024-06-28 14:02:06.341840029,12.0,64.0,9.0
1904-01-01 00:43:39.398602029,E4_Acc,2024-06-28 14:02:06.373090029,11.0,62.0,8.0
1904-01-01 00:43:39.429862042,E4_Acc,2024-06-28 14:02:06.404350042,10.0,62.0,6.0
1904-01-01 00:43:39.461112042,E4_Acc,2024-06-28 14:02:06.435600042,10.0,63.0,6.0
1904-01-01 00:43:39.492362042,E4_Acc,2024-06-28 14:02:06.466850042,11.0,64.0,6.0
1904-01-01 00:43:39.523612042,E4_Acc,2024-06-28 14:02:06.498100042,11.0,63.0,7.0
1904-01-01 00:43:39.554862042,E4_Acc,2024-06-28 14:02:06.529350042,12.0,63.0,8.0
1904-01-01 00:43:39.586112042,E4_Acc,2024-06-28 14:02:06.560600042,11.0,63.0,8.0
1904-01-01 00:43:39.617362042,E4_Acc,2024-06-28 14:02:06.591850042,11.0,64.0,9.0
1904-01-01 00:43:39.648622056,E4_Acc,2024-06-28 14:02:06.623110056,10.0,63.0,8.0
1904-01-01 00:43:39.679872056,E4_Acc,2024-06-28 14:02:06.654360056,10.0,63.0,8.0
1904-01-01 00:43:39.711122056,E4_Acc,2024-06-28 14:02:06.685610056,10.0,63.0,8.0
1904-01-01 00:43:39.742372056,E4_Acc,2024-06-28 14:02:06.716860056,8.0,62.0,7.0
1904-01-01 00:43:39.773622056,E4_Acc,2024-06-28 14:02:06.748110056,9.0,62.0,7.0
1904-01-01 00:43:39.804872056,E4_Acc,2024-06-28 14:02:06.779360056,11.0,63.0,8.0
1904-01-01 00:43:39.836122056,E4_Acc,2024-06-28 14:02:06.810610056,12.0,63.0,8.0
1904-01-01 00:43:39.867382070,E4_Acc,2024-06-28 14:02:06.841870070,13.0,63.0,8.0
1904-01-01 00:43:39.898632070,E4_Acc,2024-06-28 14:02:06.873120070,12.0,65.0,8.0
1904-01-01 00:43:39.929882070,E4_Acc,2024-06-28 14:02:06.904370070,12.0,65.0,8.0
1904-01-01 00:43:39.961132070,E4_Acc,2024-06-28 14:02:06.935620070,11.0,63.0,7.0
1904-01-01 00:43:39.992382070,E4_Acc,2024-06-28 14:02:06.966870070,11.0,62.0,7.0
1904-01-01 00:43:40.023632070,E4_Acc,2024-06-28 14:02:06.998120070,10.0,62.0,7.0
1904-01-01 00:43:40.054882070,E4_Acc,2024-06-28 14:02:07.029370070,11.0,62.0,7.0
1904-01-01 00:43:40.086142083,E4_Acc,2024-06-28 14:02:07.060630083,11.0,63.0,8.0
1904-01-01 00:43:40.117392083,E4_Acc,2024-06-28 14:02:07.091880083,11.0,63.0,8.0
1904-01-01 00:43:40.148642083,E4_Acc,2024-06-28 14:02:07.123130083,11.0,63.0,7.0
1904-01-01 00:43:40.179892083,E4_Acc,2024-06-28 14:02:07.154380083,10.0,63.0,7.0
1904-01-01 00:43:40.211142083,E4_Acc,2024-06-28 14:02:07.185630083,10.0,63.0,7.0
1904-01-01 00:43:40.242392083,E4_Acc,2024-06-28 14:02:07.216880083,10.0,62.0,7.0
1904-01-01 00:43:40.273642083,E4_Acc,2024-06-28 14:02:07.248130083,10.0,62.0,7.0
1904-01-01 00:43:40.304902097,E4_Acc,2024-06-28 14:02:07.279390097,10.0,63.0,8.0
1904-01-01 00:43:40.336152097,E4_Acc,2024-06-28 14:02:07.310640097,10.0,63.0,8.0
1904-01-01 00:43:40.367402097,E4_Acc,2024-06-28 14:02:07.341890097,11.0,64.0,8.0
1904-01-01 00:43:40.398652097,E4_Acc,2024-06-28 14:02:07.373140097,11.0,64.0,8.0
1904-01-01 00:43:40.429902097,E4_Acc,2024-06-28 14:02:07.404390097,11.0,64.0,9.0
1904-01-01 00:43:40.461152097,E4_Acc,2024-06-28 14:02:07.435640097,11.0,63.0,8.0
1904-01-01 00:43:40.492402097,E4_Acc,2024-06-28 14:02:07.466890097,10.0,63.0,8.0
1904-01-01 00:43:40.523662110,E4_Acc,2024-06-28 14:02:07.498150110,9.0,64.0,8.0
1904-01-01 00:43:40.554912110,E4_Acc,2024-06-28 14:02:07.529400110,9.0,64.0,7.0
1904-01-01 00:43:40.586162110,E4_Acc,2024-06-28 14:02:07.560650110,10.0,63.0,7.0
1904-01-01 00:43:40.617412110,E4_Acc,2024-06-28 14:02:07.591900110,10.0,63.0,7.0
1904-01-01 00:43:40.648662110,E4_Acc,2024-06-28 14:02:07.623150110,10.0,63.0,7.0
1904-01-01 00:43:40.679912110,E4_Acc,2024-06-28 14:02:07.654400110,10.0,62.0,7.0
1904-01-01 00:43:40.711162110,E4_Acc,2024-06-28 14:02:07.685650110,10.0,63.0,7.0
1904-01-01 00:43:40.742421885,E4_Acc,2024-06-28 14:02:07.716909885,12.0,63.0,8.0
1904-01-01 00:43:40.773671885,E4_Acc,2024-06-28 14:02:07.748159885,12.0,64.0,9.0
1904-01-01 00:43:40.804921885,E4_Acc,2024-06-28 14:02:07.779409885,12.0,63.0,9.0
1904-01-01 00:43:40.836171885,E4_Acc,2024-06-28 14:02:07.810659885,11.0,63.0,9.0
1904-01-01 00:43:40.867421885,E4_Acc,2024-06-28 14:02:07.841909885,10.0,63.0,9.0
1904-01-01 00:43:40.898671885,E4_Acc,2024-06-28 14:02:07.873159885,10.0,63.0,8.0
1904-01-01 00:43:40.929931899,E4_Acc,2024-06-28 14:02:07.904419899,10.0,63.0,7.0
1904-01-01 00:43:40.961181899,E4_Acc,2024-06-28 14:02:07.935669899,10.0,62.0,7.0
1904-01-01 00:43:40.992431899,E4_Acc,2024-06-28 14:02:07.966919899,9.0,62.0,8.0
1904-01-01 00:43:41.023681899,E4_Acc,2024-06-28 14:02:07.998169899,10.0,62.0,8.0
1904-01-01 00:43:41.054931899,E4_Acc,2024-06-28 14:02:08.029419899,11.0,63.0,9.0
1904-01-01 00:43:41.086181899,E4_Acc,2024-06-28 14:02:08.060669899,11.0,64.0,8.0
1904-01-01 00:43:41.117431899,E4_Acc,2024-06-28 14:02:08.091919899,11.0,63.0,8.0
1904-01-01 00:43:41.148691913,E4_Acc,2024-06-28 14:02:08.123179913,11.0,63.0,8.0
1904-01-01 00:43:41.179941913,E4_Acc,2024-06-28 14:02:08.154429913,11.0,62.0,8.0
1904-01-01 00:43:41.211191913,E4_Acc,2024-06-28 14:02:08.185679913,11.0,62.0,8.0
1904-01-01 00:43:41.242441913,E4_Acc,2024-06-28 14:02:08.216929913,12.0,62.0,8.0
1904-01-01 00:43:41.273691913,E4_Acc,2024-06-28 14:02:08.248179913,12.0,63.0,8.0
1904-01-01 00:43:41.304941913,E4_Acc,2024-06-28 14:02:08.279429913,13.0,63.0,9.0
1904-01-01 00:43:41.336191913,E4_Acc,2024-06-28 14:02:08.310679913,13.0,64.0,8.0
1904-01-01 00:43:41.367451926,E4_Acc,2024-06-28 14:02:08.341939926,11.0,62.0,7.0
1904-01-01 00:43:41.398701926,E4_Acc,2024-06-28 14:02:08.373189926,11.0,62.0,8.0
1904-01-01 00:43:41.429951926,E4_Acc,2024-06-28 14:02:08.404439926,10.0,62.0,8.0
1904-01-01 00:43:41.461201926,E4_Acc,2024-06-28 14:02:08.435689926,9.0,63.0,8.0
1904-01-01 00:43:41.492451926,E4_Acc,2024-06-28 14:02:08.466939926,10.0,64.0,9.0
1904-01-01 00:43:41.523701926,E4_Acc,2024-06-28 14:02:08.498189926,10.0,64.0,9.0
1904-01-01 00:43:41.554951926,E4_Acc,2024-06-28 14:02:08.529439926,10.0,63.0,9.0
1904-01-01 00:43:41.586211940,E4_Acc,2024-06-28 14:02:08.560699940,10.0,63.0,9.0
1904-01-01 00:43:41.617461940,E4_Acc,2024-06-28 14:02:08.591949940,11.0,63.0,9.0
1904-01-01 00:43:41.648711940,E4_Acc,2024-06-28 14:02:08.623199940,11.0,63.0,8.0
1904-01-01 00:43:41.679961940,E4_Acc,2024-06-28 14:02:08.654449940,11.0,63.0,8.0
1904-01-01 00:43:41.711211940,E4_Acc,2024-06-28 14:02:08.685699940,11.0,63.0,8.0
1904-01-01 00:43:41.742461940,E4_Acc,2024-06-28 14:02:08.716949940,11.0,63.0,8.0
1904-01-01 00:43:41.773711940,E4_Acc,2024-06-28 14:02:08.748199940,11.0,63.0,7.0
1904-01-01 00:43:41.804971953,E4_Acc,2024-06-28 14:02:08.779459953,11.0,62.0,7.0
1904-01-01 00:43:41.836221953,E4_Acc,2024-06-28 14:02:08.810709953,11.0,62.0,7.0
1904-01-01 00:43:41.867471953,E4_Acc,2024-06-28 14:02:08.841959953,11.0,63.0,8.0
1904-01-01 00:43:41.898721953,E4_Acc,2024-06-28 14:02:08.873209953,11.0,63.0,8.0
1904-01-01 00:43:41.929971953,E4_Acc,2024-06-28 14:02:08.904459953,11.0,62.0,8.0
1904-01-01 00:43:41.961221953,E4_Acc,2024-06-28 14:02:08.935709953,11.0,63.0,8.0
1904-01-01 00:43:41.992471953,E4_Acc,2024-06-28 14:02:08.966959953,11.0,63.0,8.0
1904-01-01 00:43:42.023731967,E4_Acc,2024-06-28 14:02:08.998219967,11.0,63.0,8.0
1904-01-01 00:43:42.054981967,E4_Acc,2024-06-28 14:02:09.029469967,11.0,63.0,8.0
1904-01-01 00:43:42.086231967,E4_Acc,2024-06-28 14:02:09.060719967,11.0,62.0,8.0
1904-01-01 00:43:42.117481967,E4_Acc,2024-06-28 14:02:09.091969967,11.0,63.0,8.0
1904-01-01 00:43:42.148731967,E4_Acc,2024-06-28 14:02:09.123219967,11.0,64.0,7.0
1904-01-01 00:43:42.179981967,E4_Acc,2024-06-28 14:02:09.154469967,11.0,63.0,8.0
1904-01-01 00:43:42.211231967,E4_Acc,2024-06-28 14:02:09.185719967,11.0,63.0,8.0
1904-01-01 00:43:42.242491980,E4_Acc,2024-06-28 14:02:09.216979980,11.0,64.0,8.0
1904-01-01 00:43:42.273741980,E4_Acc,2024-06-28 14:02:09.248229980,12.0,63.0,8.0
1904-01-01 00:43:42.304991980,E4_Acc,2024-06-28 14:02:09.279479980,12.0,63.0,8.0
1904-01-01 00:43:42.336241980,E4_Acc,2024-06-28 14:02:09.310729980,11.0,63.0,8.0
1904-01-01 00:43:42.367491980,E4_Acc,2024-06-28 14:02:09.341979980,11.0,62.0,8.0
1904-01-01 00:43:42.398741980,E4_Acc,2024-06-28 14:02:09.373229980,11.0,63.0,7.0
1904-01-01 00:43:42.429991980,E4_Acc,2024-06-28 14:02:09.404479980,11.0,63.0,8.0
1904-01-01 00:43:42.461251994,E4_Acc,2024-06-28 14:02:09.435739994,11.0,64.0,8.0
1904-01-01 00:43:42.492501994,E4_Acc,2024-06-28 14:02:09.466989994,10.0,63.0,8.0
1904-01-01 00:43:42.523751994,E4_Acc,2024-06-28 14:02:09.498239994,10.0,62.0,8.0
1904-01-01 00:43:42.555001993,E4_Acc,2024-06-28 14:02:09.529489993,11.0,63.0,7.0
1904-01-01 00:43:42.586251994,E4_Acc,2024-06-28 14:02:09.560739994,11.0,63.0,8.0
1904-01-01 00:43:42.617501994,E4_Acc,2024-06-28 14:02:09.591989994,12.0,62.0,8.0
1904-01-01 00:43:42.648751994,E4_Acc,2024-06-28 14:02:09.623239994,11.0,63.0,7.0
1904-01-01 00:43:42.680012008,E4_Acc,2024-06-28 14:02:09.654500008,12.0,63.0,7.0
1904-01-01 00:43:42.711262008,E4_Acc,2024-06-28 14:02:09.685750008,11.0,63.0,7.0
1904-01-01 00:43:42.742512008,E4_Acc,2024-06-28 14:02:09.717000008,12.0,63.0,7.0
1904-01-01 00:43:42.773762008,E4_Acc,2024-06-28 14:02:09.748250008,11.0,63.0,6.0
1904-01-01 00:43:42.805012008,E4_Acc,2024-06-28 14:02:09.779500008,11.0,63.0,7.0
1904-01-01 00:43:42.836262008,E4_Acc,2024-06-28 14:02:09.810750008,11.0,63.0,7.0
1904-01-01 00:43:42.867512008,E4_Acc,2024-06-28 14:02:09.842000008,11.0,63.0,8.0
1904-01-01 00:43:42.898772021,E4_Acc,2024-06-28 14:02:09.873260021,11.0,64.0,8.0
1904-01-01 00:43:42.930022021,E4_Acc,2024-06-28 14:02:09.904510021,11.0,64.0,8.0
1904-01-01 00:43:42.961272021,E4_Acc,2024-06-28 14:02:09.935760021,11.0,63.0,8.0
1904-01-01 00:43:42.992522021,E4_Acc,2024-06-28 14:02:09.967010021,11.0,64.0,8.0
1904-01-01 00:43:43.023772021,E4_Acc,2024-06-28 14:02:09.998260021,11.0,63.0,8.0
1904-01-01 00:43:43.055022021,E4_Acc,2024-06-28 14:02:10.029510021,11.0,63.0,8.0
1904-01-01 00:43:43.086282035,E4_Acc,2024-06-28 14:02:10.060770035,11.0,63.0,7.0
1904-01-01 00:43:43.117532035,E4_Acc,2024-06-28 14:02:10.092020035,11.0,62.0,7.0
1904-01-01 00:43:43.148782035,E4_Acc,2024-06-28 14:02:10.123270035,12.0,62.0,7.0
1904-01-01 00:43:43.180032035,E4_Acc,2024-06-28 14:02:10.154520035,12.0,62.0,7.0
1904-01-01 00:43:43.211282035,E4_Acc,2024-06-28 14:02:10.185770035,12.0,63.0,7.0
1904-01-01 00:43:43.242532035,E4_Acc,2024-06-28 14:02:10.217020035,12.0,63.0,6.0
1904-01-01 00:43:43.273782035,E4_Acc,2024-06-28 14:02:10.248270035,12.0,63.0,6.0
1904-01-01 00:43:43.305042048,E4_Acc,2024-06-28 14:02:10.279530048,11.0,62.0,6.0
1904-01-01 00:43:43.336292048,E4_Acc,2024-06-28 14:02:10.310780048,11.0,62.0,6.0
1904-01-01 00:43:43.367542048,E4_Acc,2024-06-28 14:02:10.342030048,11.0,63.0,7.0
1904-01-01 00:43:43.398792048,E4_Acc,2024-06-28 14:02:10.373280048,11.0,63.0,7.0
1904-01-01 00:43:43.430042048,E4_Acc,2024-06-28 14:02:10.404530048,10.0,63.0,8.0
1904-01-01 00:43:43.461292048,E4_Acc,2024-06-28 14:02:10.435780048,10.0,64.0,8.0
1904-01-01 00:43:43.492542048,E4_Acc,2024-06-28 14:02:10.467030048,10.0,64.0,8.0
1904-01-01 00:43:43.523802062,E4_Acc,2024-06-28 14:02:10.498290062,10.0,63.0,8.0
1904-01-01 00:43:43.555052062,E4_Acc,2024-06-28 14:02:10.529540062,10.0,63.0,8.0
1904-01-01 00:43:43.586302062,E4_Acc,2024-06-28 14:02:10.560790062,10.0,63.0,8.0
1904-01-01 00:43:43.617552062,E4_Acc,2024-06-28 14:02:10.592040062,11.0,63.0,8.0
1904-01-01 00:43:43.648802062,E4_Acc,2024-06-28 14:02:10.623290062,11.0,63.0,8.0
1904-01-01 00:43:43.680052062,E4_Acc,2024-06-28 14:02:10.654540062,12.0,63.0,7.0
1904-01-01 00:43:43.711302062,E4_Acc,2024-06-28 14:02:10.685790062,12.0,63.0,7.0
1904-01-01 00:43:43.742562076,E4_Acc,2024-06-28 14:02:10.717050076,12.0,62.0,8.0
1904-01-01 00:43:43.773812076,E4_Acc,2024-06-28 14:02:10.748300076,12.0,63.0,7.0
1904-01-01 00:43:43.805062076,E4_Acc,2024-06-28 14:02:10.779550076,12.0,63.0,8.0
1904-01-01 00:43:43.836312076,E4_Acc,2024-06-28 14:02:10.810800076,12.0,63.0,7.0
1904-01-01 00:43:43.867562076,E4_Acc,2024-06-28 14:02:10.842050076,12.0,63.0,7.0
1904-01-01 00:43:43.898812076,E4_Acc,2024-06-28 14:02:10.873300076,12.0,63.0,7.0
1904-01-01 00:43:43.930062076,E4_Acc,2024-06-28 14:02:10.904550076,12.0,63.0,7.0
1904-01-01 00:43:43.961322089,E4_Acc,2024-06-28 14:02:10.935810089,11.0,63.0,7.0
1904-01-01 00:43:43.992572089,E4_Acc,2024-06-28 14:02:10.967060089,11.0,63.0,8.0
1904-01-01 00:43:44.023822089,E4_Acc,2024-06-28 14:02:10.998310089,11.0,63.0,7.0
1904-01-01 00:43:44.055072089,E4_Acc,2024-06-28 14:02:11.029560089,11.0,63.0,8.0
1904-01-01 00:43:44.086322089,E4_Acc,2024-06-28 14:02:11.060810089,11.0,62.0,7.0
1904-01-01 00:43:44.117572089,E4_Acc,2024-06-28 14:02:11.092060089,11.0,63.0,7.0
1904-01-01 00:43:44.148822089,E4_Acc,2024-06-28 14:02:11.123310089,12.0,63.0,7.0
1904-01-01 00:43:44.180082103,E4_Acc,2024-06-28 14:02:11.154570103,12.0,63.0,7.0
1904-01-01 00:43:44.211332103,E4_Acc,2024-06-28 14:02:11.185820103,11.0,63.0,7.0
1904-01-01 00:43:44.242582103,E4_Acc,2024-06-28 14:02:11.217070103,11.0,63.0,7.0
1904-01-01 00:43:44.273832103,E4_Acc,2024-06-28 14:02:11.248320103,11.0,63.0,7.0
1904-01-01 00:43:44.305082103,E4_Acc,2024-06-28 14:02:11.279570103,11.0,63.0,7.0
1904-01-01 00:43:44.336332103,E4_Acc,2024-06-28 14:02:11.310820103,11.0,63.0,7.0
1904-01-01 00:43:44.367582103,E4_Acc,2024-06-28 14:02:11.342070103,11.0,63.0,7.0
1904-01-01 00:43:44.398842116,E4_Acc,2024-06-28 14:02:11.373330116,11.0,63.0,8.0
1904-01-01 00:43:44.430092116,E4_Acc,2024-06-28 14:02:11.404580116,11.0,63.0,8.0
1904-01-01 00:43:44.461342116,E4_Acc,2024-06-28 14:02:11.435830116,11.0,63.0,8.0
1904-01-01 00:43:44.492592116,E4_Acc,2024-06-28 14:02:11.467080116,11.0,62.0,8.0
1904-01-01 00:43:44.523842116,E4_Acc,2024-06-28 14:02:11.498330116,11.0,63.0,8.0
1904-01-01 00:43:44.555092116,E4_Acc,2024-06-28 14:02:11.529580116,11.0,63.0,8.0
1904-01-01 00:43:44.586342116,E4_Acc,2024-06-28 14:02:11.560830116,12.0,63.0,8.0
1904-01-01 00:43:44.617601891,E4_Acc,2024-06-28 14:02:11.592089891,12.0,63.0,7.0
1904-01-01 00:43:44.648851891,E4_Acc,2024-06-28 14:02:11.623339891,11.0,62.0,7.0
1904-01-01 00:43:44.680101891,E4_Acc,2024-06-28 14:02:11.654589891,12.0,62.0,7.0
1904-01-01 00:43:44.711351891,E4_Acc,2024-06-28 14:02:11.685839891,12.0,63.0,7.0
1904-01-01 00:43:44.742601891,E4_Acc,2024-06-28 14:02:11.717089891,12.0,63.0,7.0
1904-01-01 00:43:44.773851891,E4_Acc,2024-06-28 14:02:11.748339891,12.0,63.0,7.0
1904-01-01 00:43:44.805101891,E4_Acc,2024-06-28 14:02:11.779589891,11.0,63.0,8.0
1904-01-01 00:43:44.836361905,E4_Acc,2024-06-28 14:02:11.810849905,11.0,62.0,8.0
1904-01-01 00:43:44.867611905,E4_Acc,2024-06-28 14:02:11.842099905,12.0,62.0,8.0
1904-01-01 00:43:44.898861905,E4_Acc,2024-06-28 14:02:11.873349905,12.0,63.0,8.0
1904-01-01 00:43:44.930111905,E4_Acc,2024-06-28 14:02:11.904599905,12.0,63.0,8.0
1904-01-01 00:43:44.961361905,E4_Acc,2024-06-28 14:02:11.935849905,12.0,63.0,8.0
1904-01-01 00:43:44.992611905,E4_Acc,2024-06-28 14:02:11.967099905,12.0,63.0,8.0
1904-01-01 00:43:45.023861905,E4_Acc,2024-06-28 14:02:11.998349905,11.0,62.0,8.0
1904-01-01 00:43:45.055121919,E4_Acc,2024-06-28 14:02:12.029609919,11.0,63.0,8.0
1904-01-01 00:43:45.086371919,E4_Acc,2024-06-28 14:02:12.060859919,11.0,63.0,8.0
1904-01-01 00:43:45.117621919,E4_Acc,2024-06-28 14:02:12.092109919,11.0,63.0,8.0
1904-01-01 00:43:45.148871919,E4_Acc,2024-06-28 14:02:12.123359919,11.0,63.0,8.0
1904-01-01 00:43:45.180121919,E4_Acc,2024-06-28 14:02:12.154609919,11.0,63.0,8.0
1904-01-01 00:43:45.211371919,E4_Acc,2024-06-28 14:02:12.185859919,11.0,63.0,8.0
1904-01-01 00:43:45.242621919,E4_Acc,2024-06-28 14:02:12.217109919,11.0,63.0,8.0
1904-01-01 00:43:45.273881932,E4_Acc,2024-06-28 14:02:12.248369932,11.0,62.0,8.0
1904-01-01 00:43:45.305131932,E4_Acc,2024-06-28 14:02:12.279619932,11.0,63.0,8.0
1904-01-01 00:43:45.336381932,E4_Acc,2024-06-28 14:02:12.310869932,12.0,63.0,8.0
1904-01-01 00:43:45.367631932,E4_Acc,2024-06-28 14:02:12.342119932,12.0,63.0,8.0
1904-01-01 00:43:45.398881932,E4_Acc,2024-06-28 14:02:12.373369932,11.0,63.0,8.0
1904-01-01 00:43:45.430131932,E4_Acc,2024-06-28 14:02:12.404619932,11.0,62.0,8.0
1904-01-01 00:43:45.461381932,E4_Acc,2024-06-28 14:02:12.435869932,11.0,62.0,8.0
1904-01-01 00:43:45.492641946,E4_Acc,2024-06-28 14:02:12.467129946,12.0,63.0,8.0
1904-01-01 00:43:45.523891946,E4_Acc,2024-06-28 14:02:12.498379946,12.0,63.0,8.0
1904-01-01 00:43:45.555141946,E4_Acc,2024-06-28 14:02:12.529629946,12.0,63.0,7.0
1904-01-01 00:43:45.586391946,E4_Acc,2024-06-28 14:02:12.560879946,11.0,62.0,7.0
1904-01-01 00:43:45.617641946,E4_Acc,2024-06-28 14:02:12.592129946,11.0,62.0,7.0
1904-01-01 00:43:45.648891946,E4_Acc,2024-06-28 14:02:12.623379946,11.0,63.0,8.0
1904-01-01 00:43:45.680141946,E4_Acc,2024-06-28 14:02:12.654629946,12.0,63.0,8.0
1904-01-01 00:43:45.711401959,E4_Acc,2024-06-28 14:02:12.685889959,11.0,63.0,8.0
1904-01-01 00:43:45.742651959,E4_Acc,2024-06-28 14:02:12.717139959,11.0,63.0,8.0
1904-01-01 00:43:45.773901959,E4_Acc,2024-06-28 14:02:12.748389959,11.0,63.0,8.0
1904-01-01 00:43:45.805151959,E4_Acc,2024-06-28 14:02:12.779639959,11.0,63.0,8.0
1904-01-01 00:43:45.836401959,E4_Acc,2024-06-28 14:02:12.810889959,12.0,63.0,8.0
1904-01-01 00:43:45.867651959,E4_Acc,2024-06-28 14:02:12.842139959,12.0,63.0,8.0
1904-01-01 00:43:45.898911973,E4_Acc,2024-06-28 14:02:12.873399973,12.0,63.0,8.0
1904-01-01 00:43:45.930161973,E4_Acc,2024-06-28 14:02:12.904649973,12.0,63.0,8.0
1904-01-01 00:43:45.961411973,E4_Acc,2024-06-28 14:02:12.935899973,12.0,63.0,7.0
1904-01-01 00:43:45.992661973,E4_Acc,2024-06-28 14:02:12.967149973,12.0,63.0,7.0
1904-01-01 00:43:46.023911973,E4_Acc,2024-06-28 14:02:12.998399973,12.0,63.0,7.0
1904-01-01 00:43:46.055161973,E4_Acc,2024-06-28 14:02:13.029649973,12.0,63.0,7.0
1904-01-01 00:43:46.086411973,E4_Acc,2024-06-28 14:02:13.060899973,11.0,63.0,7.0
1904-01-01 00:43:46.117671986,E4_Acc,2024-06-28 14:02:13.092159986,12.0,63.0,8.0
1904-01-01 00:43:46.148921986,E4_Acc,2024-06-28 14:02:13.123409986,11.0,63.0,8.0
1904-01-01 00:43:46.180171986,E4_Acc,2024-06-28 14:02:13.154659986,11.0,63.0,8.0
1904-01-01 00:43:46.211421986,E4_Acc,2024-06-28 14:02:13.185909986,11.0,63.0,8.0
1904-01-01 00:43:46.242671986,E4_Acc,2024-06-28 14:02:13.217159986,11.0,63.0,8.0
1904-01-01 00:43:46.273921986,E4_Acc,2024-06-28 14:02:13.248409986,11.0,63.0,8.0
1904-01-01 00:43:46.305171986,E4_Acc,2024-06-28 14:02:13.279659986,11.0,63.0,8.0
1904-01-01 00:43:46.336432000,E4_Acc,2024-06-28 14:02:13.310920000,11.0,63.0,8.0
1904-01-01 00:43:46.367682000,E4_Acc,2024-06-28 14:02:13.342170000,11.0,63.0,7.0
1904-01-01 00:43:46.398932000,E4_Acc,2024-06-28 14:02:13.373420000,11.0,63.0,8.0
1904-01-01 00:43:46.430182000,E4_Acc,2024-06-28 14:02:13.404670000,12.0,62.0,7.0
1904-01-01 00:43:46.461432000,E4_Acc,2024-06-28 14:02:13.435920000,12.0,62.0,7.0
1904-01-01 00:43:46.492682000,E4_Acc,2024-06-28 14:02:13.467170000,12.0,63.0,7.0
1904-01-01 00:43:46.523932000,E4_Acc,2024-06-28 14:02:13.498420000,12.0,63.0,7.0
1904-01-01 00:43:46.555192014,E4_Acc,2024-06-28 14:02:13.529680014,12.0,63.0,7.0
1904-01-01 00:43:46.586442014,E4_Acc,2024-06-28 14:02:13.560930014,11.0,63.0,8.0
1904-01-01 00:43:46.617692014,E4_Acc,2024-06-28 14:02:13.592180014,11.0,63.0,8.0
1904-01-01 00:43:46.648942014,E4_Acc,2024-06-28 14:02:13.623430014,11.0,63.0,8.0
1904-01-01 00:43:46.680192014,E4_Acc,2024-06-28 14:02:13.654680014,11.0,63.0,9.0
1904-01-01 00:43:46.711442014,E4_Acc,2024-06-28 14:02:13.685930014,11.0,63.0,9.0
1904-01-01 00:43:46.742692014,E4_Acc,2024-06-28 14:02:13.717180014,11.0,63.0,9.0
1904-01-01 00:43:46.773952027,E4_Acc,2024-06-28 14:02:13.748440027,11.0,63.0,9.0
1904-01-01 00:43:46.805202027,E4_Acc,2024-06-28 14:02:13.779690027,11.0,63.0,8.0
1904-01-01 00:43:46.836452027,E4_Acc,2024-06-28 14:02:13.810940027,12.0,63.0,8.0
1904-01-01 00:43:46.867702027,E4_Acc,2024-06-28 14:02:13.842190027,12.0,63.0,8.0
1904-01-01 00:43:46.898952027,E4_Acc,2024-06-28 14:02:13.873440027,12.0,63.0,8.0
1904-01-01 00:43:46.930202027,E4_Acc,2024-06-28 14:02:13.904690027,11.0,63.0,8.0
1904-01-01 00:43:46.961452027,E4_Acc,2024-06-28 14:02:13.935940027,12.0,63.0,8.0
1904-01-01 00:43:46.992712041,E4_Acc,2024-06-28 14:02:13.967200041,12.0,63.0,8.0
1904-01-01 00:43:47.023962041,E4_Acc,2024-06-28 14:02:13.998450041,11.0,62.0,8.0
1904-01-01 00:43:47.055212041,E4_Acc,2024-06-28 14:02:14.029700041,11.0,62.0,8.0
1904-01-01 00:43:47.086462041,E4_Acc,2024-06-28 14:02:14.060950041,12.0,63.0,8.0
1904-01-01 00:43:47.117712041,E4_Acc,2024-06-28 14:02:14.092200041,11.0,63.0,8.0
1904-01-01 00:43:47.148962041,E4_Acc,2024-06-28 14:02:14.123450041,11.0,63.0,8.0
1904-01-01 00:43:47.180212041,E4_Acc,2024-06-28 14:02:14.154700041,11.0,63.0,8.0
1904-01-01 00:43:47.211472054,E4_Acc,2024-06-28 14:02:14.185960054,11.0,63.0,8.0
1904-01-01 00:43:47.242722054,E4_Acc,2024-06-28 14:02:14.217210054,11.0,63.0,9.0
1904-01-01 00:43:47.273972054,E4_Acc,2024-06-28 14:02:14.248460054,10.0,63.0,9.0
1904-01-01 00:43:47.305222054,E4_Acc,2024-06-28 14:02:14.279710054,11.0,63.0,8.0
1904-01-01 00:43:47.336472054,E4_Acc,2024-06-28 14:02:14.310960054,11.0,63.0,8.0
1904-01-01 00:43:47.367722054,E4_Acc,2024-06-28 14:02:14.342210054,11.0,63.0,8.0
1904-01-01 00:43:47.398972054,E4_Acc,2024-06-28 14:02:14.373460054,11.0,62.0,8.0
1904-01-01 00:43:47.430232068,E4_Acc,2024-06-28 14:02:14.404720068,11.0,62.0,8.0
1904-01-01 00:43:47.461482068,E4_Acc,2024-06-28 14:02:14.435970068,12.0,62.0,8.0
1904-01-01 00:43:47.492732068,E4_Acc,2024-06-28 14:02:14.467220068,11.0,63.0,8.0
1904-01-01 00:43:47.523982068,E4_Acc,2024-06-28 14:02:14.498470068,12.0,63.0,8.0
1904-01-01 00:43:47.555232068,E4_Acc,2024-06-28 14:02:14.529720068,11.0,63.0,8.0
1904-01-01 00:43:47.586482068,E4_Acc,2024-06-28 14:02:14.560970068,11.0,62.0,9.0
1904-01-01 00:43:47.617732068,E4_Acc,2024-06-28 14:02:14.592220068,11.0,63.0,9.0
1904-01-01 00:43:47.648992082,E4_Acc,2024-06-28 14:02:14.623480082,11.0,63.0,9.0
1904-01-01 00:43:47.680242082,E4_Acc,2024-06-28 14:02:14.654730082,11.0,63.0,9.0
1904-01-01 00:43:47.711492082,E4_Acc,2024-06-28 14:02:14.685980082,11.0,63.0,9.0
1904-01-01 00:43:47.742742082,E4_Acc,2024-06-28 14:02:14.717230082,11.0,63.0,9.0
1904-01-01 00:43:47.773992082,E4_Acc,2024-06-28 14:02:14.748480082,11.0,62.0,9.0
1904-01-01 00:43:47.805242082,E4_Acc,2024-06-28 14:02:14.779730082,11.0,63.0,8.0
1904-01-01 00:43:47.836492082,E4_Acc,2024-06-28 14:02:14.810980082,11.0,63.0,8.0
1904-01-01 00:43:47.867752095,E4_Acc,2024-06-28 14:02:14.842240095,11.0,63.0,8.0
1904-01-01 00:43:47.899002095,E4_Acc,2024-06-28 14:02:14.873490095,11.0,63.0,8.0
1904-01-01 00:43:47.930252095,E4_Acc,2024-06-28 14:02:14.904740095,12.0,62.0,8.0
1904-01-01 00:43:47.961502095,E4_Acc,2024-06-28 14:02:14.935990095,12.0,62.0,8.0
1904-01-01 00:43:47.992752095,E4_Acc,2024-06-28 14:02:14.967240095,12.0,63.0,8.0
1904-01-01 00:43:48.024002095,E4_Acc,2024-06-28 14:02:14.998490095,12.0,63.0,8.0
1904-01-01 00:43:48.055262109,E4_Acc,2024-06-28 14:02:15.029750109,12.0,63.0,8.0
1904-01-01 00:43:48.086512109,E4_Acc,2024-06-28 14:02:15.061000109,11.0,63.0,8.0
1904-01-01 00:43:48.117762109,E4_Acc,2024-06-28 14:02:15.092250109,11.0,63.0,9.0
1904-01-01 00:43:48.149012109,E4_Acc,2024-06-28 14:02:15.123500109,11.0,63.0,9.0
1904-01-01 00:43:48.180262109,E4_Acc,2024-06-28 14:02:15.154750109,11.0,63.0,9.0
1904-01-01 00:43:48.211512109,E4_Acc,2024-06-28 14:02:15.186000109,11.0,63.0,8.0
1904-01-01 00:43:48.242762109,E4_Acc,2024-06-28 14:02:15.217250109,11.0,63.0,8.0
1904-01-01 00:43:48.274021884,E4_Acc,2024-06-28 14:02:15.248509884,11.0,63.0,8.0
1904-01-01 00:43:48.305271884,E4_Acc,2024-06-28 14:02:15.279759884,12.0,63.0,8.0
1904-01-01 00:43:48.336521884,E4_Acc,2024-06-28 14:02:15.311009884,12.0,63.0,8.0
1904-01-01 00:43:48.367771884,E4_Acc,2024-06-28 14:02:15.342259884,11.0,63.0,8.0
1904-01-01 00:43:48.399021884,E4_Acc,2024-06-28 14:02:15.373509884,12.0,63.0,8.0
1904-01-01 00:43:48.430271884,E4_Acc,2024-06-28 14:02:15.404759884,12.0,63.0,8.0
1904-01-01 00:43:48.461521884,E4_Acc,2024-06-28 14:02:15.436009884,12.0,63.0,8.0
1904-01-01 00:43:48.492781897,E4_Acc,2024-06-28 14:02:15.467269897,12.0,62.0,8.0
1904-01-01 00:43:48.524031897,E4_Acc,2024-06-28 14:02:15.498519897,12.0,63.0,8.0
1904-01-01 00:43:48.555281897,E4_Acc,2024-06-28 14:02:15.529769897,12.0,63.0,8.0
1904-01-01 00:43:48.586531897,E4_Acc,2024-06-28 14:02:15.561019897,12.0,62.0,8.0
1904-01-01 00:43:48.617781897,E4_Acc,2024-06-28 14:02:15.592269897,12.0,63.0,8.0
1904-01-01 00:43:48.649031897,E4_Acc,2024-06-28 14:02:15.623519897,11.0,63.0,8.0
1904-01-01 00:43:48.680281897,E4_Acc,2024-06-28 14:02:15.654769897,11.0,63.0,8.0
1904-01-01 00:43:48.711541911,E4_Acc,2024-06-28 14:02:15.686029911,11.0,62.0,8.0
1904-01-01 00:43:48.742791911,E4_Acc,2024-06-28 14:02:15.717279911,11.0,62.0,8.0
1904-01-01 00:43:48.774041911,E4_Acc,2024-06-28 14:02:15.748529911,11.0,63.0,8.0
1904-01-01 00:43:48.805291911,E4_Acc,2024-06-28 14:02:15.779779911,12.0,63.0,8.0
1904-01-01 00:43:48.836541911,E4_Acc,2024-06-28 14:02:15.811029911,12.0,63.0,8.0
1904-01-01 00:43:48.867791911,E4_Acc,2024-06-28 14:02:15.842279911,12.0,63.0,8.0
1904-01-01 00:43:48.899041911,E4_Acc,2024-06-28 14:02:15.873529911,12.0,63.0,8.0
1904-01-01 00:43:48.930301925,E4_Acc,2024-06-28 14:02:15.904789925,12.0,62.0,8.0
1904-01-01 00:43:48.961551925,E4_Acc,2024-06-28 14:02:15.936039925,12.0,63.0,8.0
1904-01-01 00:43:48.992801925,E4_Acc,2024-06-28 14:02:15.967289925,13.0,63.0,8.0
1904-01-01 00:43:49.024051925,E4_Acc,2024-06-28 14:02:15.998539925,13.0,63.0,8.0
1904-01-01 00:43:49.055301925,E4_Acc,2024-06-28 14:02:16.029789925,12.0,63.0,8.0
1904-01-01 00:43:49.086551925,E4_Acc,2024-06-28 14:02:16.061039925,12.0,62.0,8.0
1904-01-01 00:43:49.117801925,E4_Acc,2024-06-28 14:02:16.092289925,12.0,63.0,8.0
1904-01-01 00:43:49.149061938,E4_Acc,2024-06-28 14:02:16.123549938,12.0,63.0,8.0
1904-01-01 00:43:49.180311938,E4_Acc,2024-06-28 14:02:16.154799938,12.0,63.0,8.0
1904-01-01 00:43:49.211561938,E4_Acc,2024-06-28 14:02:16.186049938,11.0,63.0,8.0
1904-01-01 00:43:49.242811938,E4_Acc,2024-06-28 14:02:16.217299938,11.0,63.0,8.0
1904-01-01 00:43:49.274061938,E4_Acc,2024-06-28 14:02:16.248549938,11.0,63.0,8.0
1904-01-01 00:43:49.305311938,E4_Acc,2024-06-28 14:02:16.279799938,12.0,63.0,8.0
1904-01-01 00:43:49.336561938,E4_Acc,2024-06-28 14:02:16.311049938,12.0,63.0,8.0
1904-01-01 00:43:49.367821952,E4_Acc,2024-06-28 14:02:16.342309952,12.0,63.0,8.0
1904-01-01 00:43:49.399071952,E4_Acc,2024-06-28 14:02:16.373559952,12.0,63.0,8.0
1904-01-01 00:43:49.430321952,E4_Acc,2024-06-28 14:02:16.404809952,12.0,62.0,8.0
1904-01-01 00:43:49.461571952,E4_Acc,2024-06-28 14:02:16.436059952,13.0,63.0,8.0
1904-01-01 00:43:49.492821952,E4_Acc,2024-06-28 14:02:16.467309952,12.0,63.0,8.0
1904-01-01 00:43:49.524071952,E4_Acc,2024-06-28 14:02:16.498559952,12.0,62.0,8.0
1904-01-01 00:43:49.555321952,E4_Acc,2024-06-28 14:02:16.529809952,12.0,62.0,8.0
1904-01-01 00:43:49.586581965,E4_Acc,2024-06-28 14:02:16.561069965,12.0,63.0,8.0
1904-01-01 00:43:49.617831965,E4_Acc,2024-06-28 14:02:16.592319965,12.0,63.0,8.0
1904-01-01 00:43:49.649081965,E4_Acc,2024-06-28 14:02:16.623569965,12.0,63.0,8.0
1904-01-01 00:43:49.680331965,E4_Acc,2024-06-28 14:02:16.654819965,11.0,63.0,8.0
1904-01-01 00:43:49.711581965,E4_Acc,2024-06-28 14:02:16.686069965,11.0,63.0,8.0
1904-01-01 00:43:49.742831965,E4_Acc,2024-06-28 14:02:16.717319965,11.0,63.0,8.0
1904-01-01 00:43:49.774081965,E4_Acc,2024-06-28 14:02:16.748569965,11.0,63.0,8.0
1904-01-01 00:43:49.805341979,E4_Acc,2024-06-28 14:02:16.779829979,11.0,63.0,8.0
1904-01-01 00:43:49.836591979,E4_Acc,2024-06-28 14:02:16.811079979,12.0,63.0,8.0
1904-01-01 00:43:49.867841979,E4_Acc,2024-06-28 14:02:16.842329979,12.0,63.0,8.0
1904-01-01 00:43:49.899091979,E4_Acc,2024-06-28 14:02:16.873579979,12.0,62.0,8.0
1904-01-01 00:43:49.930341979,E4_Acc,2024-06-28 14:02:16.904829979,13.0,63.0,8.0
1904-01-01 00:43:49.961591979,E4_Acc,2024-06-28 14:02:16.936079979,13.0,63.0,8.0
1904-01-01 00:43:49.992841979,E4_Acc,2024-06-28 14:02:16.967329979,12.0,63.0,8.0
1904-01-01 00:43:50.024101993,E4_Acc,2024-06-28 14:02:16.998589993,13.0,63.0,8.0
1904-01-01 00:43:50.055351993,E4_Acc,2024-06-28 14:02:17.029839993,13.0,63.0,8.0
1904-01-01 00:43:50.086601993,E4_Acc,2024-06-28 14:02:17.061089993,12.0,62.0,8.0
1904-01-01 00:43:50.117851993,E4_Acc,2024-06-28 14:02:17.092339993,12.0,62.0,8.0
1904-01-01 00:43:50.149101993,E4_Acc,2024-06-28 14:02:17.123589993,12.0,63.0,8.0
1904-01-01 00:43:50.180351993,E4_Acc,2024-06-28 14:02:17.154839993,12.0,63.0,8.0
1904-01-01 00:43:50.211601993,E4_Acc,2024-06-28 14:02:17.186089993,12.0,63.0,8.0
1904-01-01 00:43:50.242862006,E4_Acc,2024-06-28 14:02:17.217350006,11.0,63.0,8.0
1904-01-01 00:43:50.274112006,E4_Acc,2024-06-28 14:02:17.248600006,11.0,62.0,8.0
1904-01-01 00:43:50.305362006,E4_Acc,2024-06-28 14:02:17.279850006,11.0,63.0,9.0
1904-01-01 00:43:50.336612006,E4_Acc,2024-06-28 14:02:17.311100006,11.0,63.0,9.0
1904-01-01 00:43:50.367862006,E4_Acc,2024-06-28 14:02:17.342350006,12.0,63.0,9.0
1904-01-01 00:43:50.399112006,E4_Acc,2024-06-28 14:02:17.373600006,12.0,63.0,9.0
1904-01-01 00:43:50.430372020,E4_Acc,2024-06-28 14:02:17.404860020,12.0,63.0,8.0
1904-01-01 00:43:50.461622020,E4_Acc,2024-06-28 14:02:17.436110020,12.0,63.0,9.0
1904-01-01 00:43:50.492872020,E4_Acc,2024-06-28 14:02:17.467360020,12.0,62.0,8.0
1904-01-01 00:43:50.524122020,E4_Acc,2024-06-28 14:02:17.498610020,12.0,62.0,8.0
1904-01-01 00:43:50.555372020,E4_Acc,2024-06-28 14:02:17.529860020,12.0,62.0,8.0
1904-01-01 00:43:50.586622020,E4_Acc,2024-06-28 14:02:17.561110020,12.0,63.0,8.0
1904-01-01 00:43:50.617872020,E4_Acc,2024-06-28 14:02:17.592360020,12.0,63.0,8.0
1904-01-01 00:43:50.649132033,E4_Acc,2024-06-28 14:02:17.623620033,12.0,62.0,8.0
1904-01-01 00:43:50.680382033,E4_Acc,2024-06-28 14:02:17.654870033,12.0,62.0,9.0
1904-01-01 00:43:50.711632033,E4_Acc,2024-06-28 14:02:17.686120033,12.0,63.0,9.0
1904-01-01 00:43:50.742882033,E4_Acc,2024-06-28 14:02:17.717370033,12.0,63.0,9.0
1904-01-01 00:43:50.774132033,E4_Acc,2024-06-28 14:02:17.748620033,12.0,63.0,9.0
1904-01-01 00:43:50.805382033,E4_Acc,2024-06-28 14:02:17.779870033,12.0,63.0,9.0
1904-01-01 00:43:50.836632033,E4_Acc,2024-06-28 14:02:17.811120033,12.0,62.0,9.0
1904-01-01 00:43:50.867892047,E4_Acc,2024-06-28 14:02:17.842380047,12.0,63.0,8.0
1904-01-01 00:43:50.899142047,E4_Acc,2024-06-28 14:02:17.873630047,12.0,63.0,9.0
1904-01-01 00:43:50.930392047,E4_Acc,2024-06-28 14:02:17.904880047,12.0,63.0,8.0
1904-01-01 00:43:50.961642047,E4_Acc,2024-06-28 14:02:17.936130047,12.0,63.0,8.0
1904-01-01 00:43:50.992892047,E4_Acc,2024-06-28 14:02:17.967380047,12.0,63.0,8.0
1904-01-01 00:43:51.024142047,E4_Acc,2024-06-28 14:02:17.998630047,12.0,62.0,8.0
1904-01-01 00:43:51.055392047,E4_Acc,2024-06-28 14:02:18.029880047,12.0,63.0,8.0
1904-01-01 00:43:51.086652060,E4_Acc,2024-06-28 14:02:18.061140060,12.0,63.0,8.0
1904-01-01 00:43:51.117902060,E4_Acc,2024-06-28 14:02:18.092390060,12.0,62.0,9.0
1904-01-01 00:43:51.149152060,E4_Acc,2024-06-28 14:02:18.123640060,12.0,62.0,8.0
1904-01-01 00:43:51.180402060,E4_Acc,2024-06-28 14:02:18.154890060,12.0,63.0,8.0
1904-01-01 00:43:51.211652060,E4_Acc,2024-06-28 14:02:18.186140060,12.0,62.0,8.0
1904-01-01 00:43:51.242902060,E4_Acc,2024-06-28 14:02:18.217390060,13.0,63.0,8.0
1904-01-01 00:43:51.274152060,E4_Acc,2024-06-28 14:02:18.248640060,12.0,62.0,9.0
1904-01-01 00:43:51.305412074,E4_Acc,2024-06-28 14:02:18.279900074,12.0,62.0,9.0
1904-01-01 00:43:51.336662074,E4_Acc,2024-06-28 14:02:18.311150074,12.0,62.0,9.0
1904-01-01 00:43:51.367912074,E4_Acc,2024-06-28 14:02:18.342400074,12.0,63.0,8.0
1904-01-01 00:43:51.399162074,E4_Acc,2024-06-28 14:02:18.373650074,12.0,63.0,8.0
1904-01-01 00:43:51.430412074,E4_Acc,2024-06-28 14:02:18.404900074,12.0,63.0,8.0
1904-01-01 00:43:51.461662074,E4_Acc,2024-06-28 14:02:18.436150074,12.0,62.0,8.0
1904-01-01 00:43:51.492912074,E4_Acc,2024-06-28 14:02:18.467400074,12.0,62.0,9.0
1904-01-01 00:43:51.524172088,E4_Acc,2024-06-28 14:02:18.498660088,13.0,63.0,8.0
1904-01-01 00:43:51.555422087,E4_Acc,2024-06-28 14:02:18.529910087,12.0,63.0,8.0
1904-01-01 00:43:51.586672088,E4_Acc,2024-06-28 14:02:18.561160088,12.0,63.0,8.0
1904-01-01 00:43:51.617922088,E4_Acc,2024-06-28 14:02:18.592410088,12.0,63.0,8.0
1904-01-01 00:43:51.649172088,E4_Acc,2024-06-28 14:02:18.623660088,12.0,63.0,9.0
1904-01-01 00:43:51.680422088,E4_Acc,2024-06-28 14:02:18.654910088,12.0,63.0,9.0
1904-01-01 00:43:51.711672088,E4_Acc,2024-06-28 14:02:18.686160088,12.0,63.0,9.0
1904-01-01 00:43:51.742932101,E4_Acc,2024-06-28 14:02:18.717420101,12.0,63.0,9.0
1904-01-01 00:43:51.774182101,E4_Acc,2024-06-28 14:02:18.748670101,12.0,63.0,9.0
1904-01-01 00:43:51.805432101,E4_Acc,2024-06-28 14:02:18.779920101,12.0,62.0,9.0
1904-01-01 00:43:51.836682101,E4_Acc,2024-06-28 14:02:18.811170101,12.0,62.0,8.0
1904-01-01 00:43:51.867932101,E4_Acc,2024-06-28 14:02:18.842420101,12.0,62.0,8.0
1904-01-01 00:43:51.899182101,E4_Acc,2024-06-28 14:02:18.873670101,12.0,63.0,8.0
1904-01-01 00:43:51.930432101,E4_Acc,2024-06-28 14:02:18.904920101,12.0,63.0,8.0
1904-01-01 00:43:51.961692115,E4_Acc,2024-06-28 14:02:18.936180115,12.0,62.0,8.0
1904-01-01 00:43:51.992942115,E4_Acc,2024-06-28 14:02:18.967430115,12.0,62.0,8.0
1904-01-01 00:43:52.024192115,E4_Acc,2024-06-28 14:02:18.998680115,12.0,62.0,8.0
1904-01-01 00:43:52.055442115,E4_Acc,2024-06-28 14:02:19.029930115,12.0,62.0,8.0
1904-01-01 00:43:52.086692115,E4_Acc,2024-06-28 14:02:19.061180115,12.0,63.0,8.0
1904-01-01 00:43:52.117942115,E4_Acc,2024-06-28 14:02:19.092430115,12.0,63.0,8.0
1904-01-01 00:43:52.149192115,E4_Acc,2024-06-28 14:02:19.123680115,12.0,63.0,8.0
1904-01-01 00:43:52.180451890,E4_Acc,2024-06-28 14:02:19.154939890,12.0,63.0,8.0
1904-01-01 00:43:52.211701890,E4_Acc,2024-06-28 14:02:19.186189890,12.0,63.0,8.0
1904-01-01 00:43:52.242951890,E4_Acc,2024-06-28 14:02:19.217439890,12.0,63.0,8.0
1904-01-01 00:43:52.274201890,E4_Acc,2024-06-28 14:02:19.248689890,12.0,63.0,8.0
1904-01-01 00:43:52.305451890,E4_Acc,2024-06-28 14:02:19.279939890,12.0,63.0,8.0
1904-01-01 00:43:52.336701890,E4_Acc,2024-06-28 14:02:19.311189890,12.0,63.0,8.0
1904-01-01 00:43:52.367951890,E4_Acc,2024-06-28 14:02:19.342439890,12.0,62.0,8.0
1904-01-01 00:43:52.399211903,E4_Acc,2024-06-28 14:02:19.373699903,12.0,63.0,8.0
1904-01-01 00:43:52.430461903,E4_Acc,2024-06-28 14:02:19.404949903,12.0,63.0,8.0
1904-01-01 00:43:52.461711903,E4_Acc,2024-06-28 14:02:19.436199903,12.0,63.0,8.0
1904-01-01 00:43:52.492961903,E4_Acc,2024-06-28 14:02:19.467449903,12.0,62.0,8.0
1904-01-01 00:43:52.524211903,E4_Acc,2024-06-28 14:02:19.498699903,12.0,62.0,8.0
1904-01-01 00:43:52.555461903,E4_Acc,2024-06-28 14:02:19.529949903,12.0,63.0,8.0
1904-01-01 00:43:52.586711903,E4_Acc,2024-06-28 14:02:19.561199903,12.0,63.0,8.0
1904-01-01 00:43:52.617971917,E4_Acc,2024-06-28 14:02:19.592459917,12.0,63.0,8.0
1904-01-01 00:43:52.649221917,E4_Acc,2024-06-28 14:02:19.623709917,12.0,62.0,8.0
1904-01-01 00:43:52.680471917,E4_Acc,2024-06-28 14:02:19.654959917,12.0,62.0,8.0
1904-01-01 00:43:52.711721917,E4_Acc,2024-06-28 14:02:19.686209917,12.0,62.0,9.0
1904-01-01 00:43:52.742971917,E4_Acc,2024-06-28 14:02:19.717459917,12.0,63.0,8.0
1904-01-01 00:43:52.774221917,E4_Acc,2024-06-28 14:02:19.748709917,12.0,63.0,8.0
1904-01-01 00:43:52.805471917,E4_Acc,2024-06-28 14:02:19.779959917,12.0,63.0,8.0
1904-01-01 00:43:52.836731931,E4_Acc,2024-06-28 14:02:19.811219931,11.0,63.0,8.0
1904-01-01 00:43:52.867981931,E4_Acc,2024-06-28 14:02:19.842469931,11.0,63.0,8.0
1904-01-01 00:43:52.899231931,E4_Acc,2024-06-28 14:02:19.873719931,12.0,63.0,8.0
1904-01-01 00:43:52.930481931,E4_Acc,2024-06-28 14:02:19.904969931,11.0,62.0,8.0
1904-01-01 00:43:52.961731931,E4_Acc,2024-06-28 14:02:19.936219931,11.0,62.0,8.0
1904-01-01 00:43:52.992981931,E4_Acc,2024-06-28 14:02:19.967469931,12.0,63.0,8.0
1904-01-01 00:43:53.024231931,E4_Acc,2024-06-28 14:02:19.998719931,12.0,63.0,8.0
1904-01-01 00:43:53.055491944,E4_Acc,2024-06-28 14:02:20.029979944,12.0,63.0,8.0
1904-01-01 00:43:53.086741944,E4_Acc,2024-06-28 14:02:20.061229944,12.0,63.0,8.0
1904-01-01 00:43:53.117991944,E4_Acc,2024-06-28 14:02:20.092479944,12.0,63.0,8.0
1904-01-01 00:43:53.149241944,E4_Acc,2024-06-28 14:02:20.123729944,12.0,63.0,8.0
1904-01-01 00:43:53.180491944,E4_Acc,2024-06-28 14:02:20.154979944,12.0,63.0,8.0
1904-01-01 00:43:53.211741944,E4_Acc,2024-06-28 14:02:20.186229944,12.0,63.0,8.0
1904-01-01 00:43:53.243001958,E4_Acc,2024-06-28 14:02:20.217489958,12.0,63.0,8.0
1904-01-01 00:43:53.274251958,E4_Acc,2024-06-28 14:02:20.248739958,12.0,63.0,8.0
1904-01-01 00:43:53.305501958,E4_Acc,2024-06-28 14:02:20.279989958,12.0,63.0,8.0
1904-01-01 00:43:53.336751958,E4_Acc,2024-06-28 14:02:20.311239958,11.0,63.0,8.0
1904-01-01 00:43:53.368001958,E4_Acc,2024-06-28 14:02:20.342489958,11.0,63.0,8.0
1904-01-01 00:43:53.399251958,E4_Acc,2024-06-28 14:02:20.373739958,11.0,63.0,8.0
1904-01-01 00:43:53.430501958,E4_Acc,2024-06-28 14:02:20.404989958,12.0,63.0,8.0
1904-01-01 00:43:53.461761971,E4_Acc,2024-06-28 14:02:20.436249971,12.0,63.0,8.0
1904-01-01 00:43:53.493011971,E4_Acc,2024-06-28 14:02:20.467499971,12.0,63.0,8.0
1904-01-01 00:43:53.524261971,E4_Acc,2024-06-28 14:02:20.498749971,12.0,63.0,8.0
1904-01-01 00:43:53.555511970,E4_Acc,2024-06-28 14:02:20.529999970,12.0,63.0,8.0
1904-01-01 00:43:53.586761971,E4_Acc,2024-06-28 14:02:20.561249971,12.0,63.0,8.0
1904-01-01 00:43:53.618011971,E4_Acc,2024-06-28 14:02:20.592499971,12.0,63.0,8.0
1904-01-01 00:43:53.649261971,E4_Acc,2024-06-28 14:02:20.623749971,12.0,63.0,8.0
1904-01-01 00:43:53.680521985,E4_Acc,2024-06-28 14:02:20.655009985,12.0,63.0,8.0
1904-01-01 00:43:53.711771985,E4_Acc,2024-06-28 14:02:20.686259985,12.0,63.0,8.0
1904-01-01 00:43:53.743021985,E4_Acc,2024-06-28 14:02:20.717509985,12.0,63.0,8.0
1904-01-01 00:43:53.774271985,E4_Acc,2024-06-28 14:02:20.748759985,12.0,63.0,7.0
1904-01-01 00:43:53.805521985,E4_Acc,2024-06-28 14:02:20.780009985,12.0,63.0,8.0
1904-01-01 00:43:53.836771985,E4_Acc,2024-06-28 14:02:20.811259985,12.0,63.0,8.0
1904-01-01 00:43:53.868021985,E4_Acc,2024-06-28 14:02:20.842509985,12.0,63.0,8.0
1904-01-01 00:43:53.899281999,E4_Acc,2024-06-28 14:02:20.873769999,12.0,63.0,8.0
1904-01-01 00:43:53.930531999,E4_Acc,2024-06-28 14:02:20.905019999,12.0,63.0,8.0
1904-01-01 00:43:53.961781999,E4_Acc,2024-06-28 14:02:20.936269999,12.0,63.0,8.0
1904-01-01 00:43:53.993031999,E4_Acc,2024-06-28 14:02:20.967519999,12.0,63.0,8.0
1904-01-01 00:43:54.024281999,E4_Acc,2024-06-28 14:02:20.998769999,12.0,62.0,8.0
1904-01-01 00:43:54.055531999,E4_Acc,2024-06-28 14:02:21.030019999,12.0,62.0,8.0
1904-01-01 00:43:54.086781999,E4_Acc,2024-06-28 14:02:21.061269999,12.0,63.0,8.0
1904-01-01 00:43:54.118042012,E4_Acc,2024-06-28 14:02:21.092530012,12.0,63.0,8.0
1904-01-01 00:43:54.149292012,E4_Acc,2024-06-28 14:02:21.123780012,12.0,63.0,8.0
1904-01-01 00:43:54.180542012,E4_Acc,2024-06-28 14:02:21.155030012,12.0,63.0,8.0
1904-01-01 00:43:54.211792012,E4_Acc,2024-06-28 14:02:21.186280012,12.0,63.0,8.0
1904-01-01 00:43:54.243042012,E4_Acc,2024-06-28 14:02:21.217530012,12.0,63.0,7.0
1904-01-01 00:43:54.274292012,E4_Acc,2024-06-28 14:02:21.248780012,12.0,63.0,8.0
1904-01-01 00:43:54.305542012,E4_Acc,2024-06-28 14:02:21.280030012,12.0,63.0,8.0
1904-01-01 00:43:54.336802026,E4_Acc,2024-06-28 14:02:21.311290026,12.0,62.0,8.0
1904-01-01 00:43:54.368052026,E4_Acc,2024-06-28 14:02:21.342540026,12.0,63.0,8.0
1904-01-01 00:43:54.399302026,E4_Acc,2024-06-28 14:02:21.373790026,12.0,63.0,8.0
1904-01-01 00:43:54.430552026,E4_Acc,2024-06-28 14:02:21.405040026,12.0,63.0,8.0
1904-01-01 00:43:54.461802026,E4_Acc,2024-06-28 14:02:21.436290026,12.0,63.0,8.0
1904-01-01 00:43:54.493052026,E4_Acc,2024-06-28 14:02:21.467540026,12.0,63.0,8.0
1904-01-01 00:43:54.524302026,E4_Acc,2024-06-28 14:02:21.498790026,12.0,63.0,8.0
1904-01-01 00:43:54.555562039,E4_Acc,2024-06-28 14:02:21.530050039,12.0,63.0,8.0
1904-01-01 00:43:54.586812039,E4_Acc,2024-06-28 14:02:21.561300039,12.0,63.0,8.0
1904-01-01 00:43:54.618062039,E4_Acc,2024-06-28 14:02:21.592550039,12.0,63.0,8.0
1904-01-01 00:43:54.649312039,E4_Acc,2024-06-28 14:02:21.623800039,12.0,63.0,8.0
1904-01-01 00:43:54.680562039,E4_Acc,2024-06-28 14:02:21.655050039,12.0,63.0,8.0
1904-01-01 00:43:54.711812039,E4_Acc,2024-06-28 14:02:21.686300039,12.0,63.0,8.0
1904-01-01 00:43:54.743062039,E4_Acc,2024-06-28 14:02:21.717550039,12.0,63.0,8.0
1904-01-01 00:43:54.774322053,E4_Acc,2024-06-28 14:02:21.748810053,12.0,63.0,8.0
1904-01-01 00:43:54.805572053,E4_Acc,2024-06-28 14:02:21.780060053,12.0,63.0,8.0
1904-01-01 00:43:54.836822053,E4_Acc,2024-06-28 14:02:21.811310053,12.0,63.0,8.0
1904-01-01 00:43:54.868072053,E4_Acc,2024-06-28 14:02:21.842560053,12.0,63.0,8.0
1904-01-01 00:43:54.899322053,E4_Acc,2024-06-28 14:02:21.873810053,12.0,63.0,8.0
1904-01-01 00:43:54.930572053,E4_Acc,2024-06-28 14:02:21.905060053,12.0,62.0,8.0
1904-01-01 00:43:54.961822053,E4_Acc,2024-06-28 14:02:21.936310053,12.0,63.0,8.0
1904-01-01 00:43:54.993082066,E4_Acc,2024-06-28 14:02:21.967570066,12.0,63.0,8.0
1904-01-01 00:43:55.024332066,E4_Acc,2024-06-28 14:02:21.998820066,12.0,63.0,8.0
1904-01-01 00:43:55.055582066,E4_Acc,2024-06-28 14:02:22.030070066,12.0,63.0,8.0
1904-01-01 00:43:55.086832066,E4_Acc,2024-06-28 14:02:22.061320066,12.0,62.0,8.0
1904-01-01 00:43:55.118082066,E4_Acc,2024-06-28 14:02:22.092570066,12.0,62.0,8.0
1904-01-01 00:43:55.149332066,E4_Acc,2024-06-28 14:02:22.123820066,12.0,62.0,8.0
1904-01-01 00:43:55.180582066,E4_Acc,2024-06-28 14:02:22.155070066,12.0,63.0,8.0
1904-01-01 00:43:55.211842080,E4_Acc,2024-06-28 14:02:22.186330080,12.0,64.0,8.0
1904-01-01 00:43:55.243092080,E4_Acc,2024-06-28 14:02:22.217580080,12.0,62.0,8.0
1904-01-01 00:43:55.274342080,E4_Acc,2024-06-28 14:02:22.248830080,12.0,62.0,8.0
1904-01-01 00:43:55.305592080,E4_Acc,2024-06-28 14:02:22.280080080,12.0,62.0,8.0
1904-01-01 00:43:55.336842080,E4_Acc,2024-06-28 14:02:22.311330080,12.0,63.0,8.0
1904-01-01 00:43:55.368092080,E4_Acc,2024-06-28 14:02:22.342580080,12.0,63.0,8.0
1904-01-01 00:43:55.399352094,E4_Acc,2024-06-28 14:02:22.373840094,12.0,63.0,8.0
1904-01-01 00:43:55.430602094,E4_Acc,2024-06-28 14:02:22.405090094,12.0,63.0,8.0
1904-01-01 00:43:55.461852094,E4_Acc,2024-06-28 14:02:22.436340094,12.0,63.0,8.0
1904-01-01 00:43:55.493102094,E4_Acc,2024-06-28 14:02:22.467590094,12.0,62.0,8.0
1904-01-01 00:43:55.524352094,E4_Acc,2024-06-28 14:02:22.498840094,12.0,63.0,8.0
1904-01-01 00:43:55.555602093,E4_Acc,2024-06-28 14:02:22.530090093,12.0,63.0,8.0
1904-01-01 00:43:55.586852094,E4_Acc,2024-06-28 14:02:22.561340094,12.0,63.0,8.0
1904-01-01 00:43:55.618112107,E4_Acc,2024-06-28 14:02:22.592600107,12.0,62.0,8.0
1904-01-01 00:43:55.649362107,E4_Acc,2024-06-28 14:02:22.623850107,12.0,62.0,8.0
1904-01-01 00:43:55.680612107,E4_Acc,2024-06-28 14:02:22.655100107,12.0,63.0,8.0
1904-01-01 00:43:55.711862107,E4_Acc,2024-06-28 14:02:22.686350107,12.0,63.0,8.0
1904-01-01 00:43:55.743112107,E4_Acc,2024-06-28 14:02:22.717600107,12.0,63.0,8.0
1904-01-01 00:43:55.774362107,E4_Acc,2024-06-28 14:02:22.748850107,12.0,63.0,8.0
1904-01-01 00:43:55.805612107,E4_Acc,2024-06-28 14:02:22.780100107,12.0,63.0,8.0
1904-01-01 00:43:55.836871882,E4_Acc,2024-06-28 14:02:22.811359882,12.0,63.0,8.0
1904-01-01 00:43:55.868121882,E4_Acc,2024-06-28 14:02:22.842609882,12.0,63.0,8.0
1904-01-01 00:43:55.899371882,E4_Acc,2024-06-28 14:02:22.873859882,12.0,63.0,8.0
1904-01-01 00:43:55.930621882,E4_Acc,2024-06-28 14:02:22.905109882,12.0,63.0,7.0
1904-01-01 00:43:55.961871882,E4_Acc,2024-06-28 14:02:22.936359882,12.0,62.0,7.0
1904-01-01 00:43:55.993121882,E4_Acc,2024-06-28 14:02:22.967609882,13.0,63.0,7.0
1904-01-01 00:43:56.024371882,E4_Acc,2024-06-28 14:02:22.998859882,12.0,63.0,8.0
1904-01-01 00:43:56.055631896,E4_Acc,2024-06-28 14:02:23.030119896,12.0,63.0,8.0
1904-01-01 00:43:56.086881896,E4_Acc,2024-06-28 14:02:23.061369896,12.0,63.0,8.0
1904-01-01 00:43:56.118131896,E4_Acc,2024-06-28 14:02:23.092619896,12.0,63.0,8.0
1904-01-01 00:43:56.149381896,E4_Acc,2024-06-28 14:02:23.123869896,12.0,63.0,8.0
1904-01-01 00:43:56.180631896,E4_Acc,2024-06-28 14:02:23.155119896,12.0,63.0,8.0
1904-01-01 00:43:56.211881896,E4_Acc,2024-06-28 14:02:23.186369896,12.0,63.0,8.0
1904-01-01 00:43:56.243131896,E4_Acc,2024-06-28 14:02:23.217619896,12.0,63.0,8.0
1904-01-01 00:43:56.274391910,E4_Acc,2024-06-28 14:02:23.248879910,12.0,63.0,7.0
1904-01-01 00:43:56.305641910,E4_Acc,2024-06-28 14:02:23.280129910,12.0,63.0,7.0
1904-01-01 00:43:56.336891910,E4_Acc,2024-06-28 14:02:23.311379910,12.0,63.0,8.0
1904-01-01 00:43:56.368141910,E4_Acc,2024-06-28 14:02:23.342629910,12.0,63.0,8.0
1904-01-01 00:43:56.399391910,E4_Acc,2024-06-28 14:02:23.373879910,12.0,63.0,8.0
1904-01-01 00:43:56.430641910,E4_Acc,2024-06-28 14:02:23.405129910,12.0,63.0,8.0
1904-01-01 00:43:56.461891910,E4_Acc,2024-06-28 14:02:23.436379910,12.0,63.0,8.0
1904-01-01 00:43:56.493151923,E4_Acc,2024-06-28 14:02:23.467639923,12.0,63.0,7.0
1904-01-01 00:43:56.524401923,E4_Acc,2024-06-28 14:02:23.498889923,12.0,63.0,8.0
1904-01-01 00:43:56.555651923,E4_Acc,2024-06-28 14:02:23.530139923,12.0,62.0,8.0
1904-01-01 00:43:56.586901923,E4_Acc,2024-06-28 14:02:23.561389923,12.0,62.0,8.0
1904-01-01 00:43:56.618151923,E4_Acc,2024-06-28 14:02:23.592639923,12.0,63.0,8.0
1904-01-01 00:43:56.649401923,E4_Acc,2024-06-28 14:02:23.623889923,12.0,63.0,7.0
1904-01-01 00:43:56.680651923,E4_Acc,2024-06-28 14:02:23.655139923,12.0,63.0,7.0
1904-01-01 00:43:56.711911937,E4_Acc,2024-06-28 14:02:23.686399937,12.0,63.0,7.0
1904-01-01 00:43:56.743161937,E4_Acc,2024-06-28 14:02:23.717649937,12.0,62.0,7.0
1904-01-01 00:43:56.774411937,E4_Acc,2024-06-28 14:02:23.748899937,12.0,63.0,8.0
1904-01-01 00:43:56.805661937,E4_Acc,2024-06-28 14:02:23.780149937,12.0,63.0,8.0
1904-01-01 00:43:56.836911937,E4_Acc,2024-06-28 14:02:23.811399937,12.0,63.0,8.0
1904-01-01 00:43:56.868161937,E4_Acc,2024-06-28 14:02:23.842649937,12.0,63.0,8.0
1904-01-01 00:43:56.899411937,E4_Acc,2024-06-28 14:02:23.873899937,12.0,63.0,8.0
1904-01-01 00:43:56.930671950,E4_Acc,2024-06-28 14:02:23.905159950,12.0,63.0,8.0
1904-01-01 00:43:56.961921950,E4_Acc,2024-06-28 14:02:23.936409950,12.0,63.0,7.0
1904-01-01 00:43:56.993171950,E4_Acc,2024-06-28 14:02:23.967659950,12.0,63.0,8.0
1904-01-01 00:43:57.024421950,E4_Acc,2024-06-28 14:02:23.998909950,12.0,63.0,8.0
1904-01-01 00:43:57.055671950,E4_Acc,2024-06-28 14:02:24.030159950,12.0,63.0,8.0
1904-01-01 00:43:57.086921950,E4_Acc,2024-06-28 14:02:24.061409950,12.0,63.0,8.0
1904-01-01 00:43:57.118171950,E4_Acc,2024-06-28 14:02:24.092659950,12.0,63.0,8.0
1904-01-01 00:43:57.149431964,E4_Acc,2024-06-28 14:02:24.123919964,11.0,63.0,8.0
1904-01-01 00:43:57.180681964,E4_Acc,2024-06-28 14:02:24.155169964,12.0,63.0,8.0
1904-01-01 00:43:57.211931964,E4_Acc,2024-06-28 14:02:24.186419964,12.0,63.0,8.0
1904-01-01 00:43:57.243181964,E4_Acc,2024-06-28 14:02:24.217669964,12.0,62.0,8.0
1904-01-01 00:43:57.274431964,E4_Acc,2024-06-28 14:02:24.248919964,12.0,63.0,8.0
1904-01-01 00:43:57.305681964,E4_Acc,2024-06-28 14:02:24.280169964,12.0,63.0,8.0
1904-01-01 00:43:57.336931964,E4_Acc,2024-06-28 14:02:24.311419964,12.0,63.0,8.0
1904-01-01 00:43:57.368191977,E4_Acc,2024-06-28 14:02:24.342679977,12.0,63.0,8.0
1904-01-01 00:43:57.399441977,E4_Acc,2024-06-28 14:02:24.373929977,12.0,62.0,8.0
1904-01-01 00:43:57.430691977,E4_Acc,2024-06-28 14:02:24.405179977,12.0,62.0,8.0
1904-01-01 00:43:57.461941977,E4_Acc,2024-06-28 14:02:24.436429977,12.0,63.0,8.0
1904-01-01 00:43:57.493191977,E4_Acc,2024-06-28 14:02:24.467679977,12.0,63.0,8.0
1904-01-01 00:43:57.524441977,E4_Acc,2024-06-28 14:02:24.498929977,12.0,63.0,8.0
1904-01-01 00:43:57.555691976,E4_Acc,2024-06-28 14:02:24.530179976,12.0,63.0,8.0
1904-01-01 00:43:57.586951991,E4_Acc,2024-06-28 14:02:24.561439991,12.0,62.0,8.0
1904-01-01 00:43:57.618201991,E4_Acc,2024-06-28 14:02:24.592689991,12.0,63.0,8.0
1904-01-01 00:43:57.649451991,E4_Acc,2024-06-28 14:02:24.623939991,12.0,63.0,8.0
1904-01-01 00:43:57.680701991,E4_Acc,2024-06-28 14:02:24.655189991,12.0,63.0,8.0
1904-01-01 00:43:57.711951991,E4_Acc,2024-06-28 14:02:24.686439991,12.0,63.0,8.0
1904-01-01 00:43:57.743201991,E4_Acc,2024-06-28 14:02:24.717689991,11.0,62.0,8.0
1904-01-01 00:43:57.774462005,E4_Acc,2024-06-28 14:02:24.748950005,11.0,63.0,8.0
1904-01-01 00:43:57.805712005,E4_Acc,2024-06-28 14:02:24.780200005,11.0,63.0,7.0
1904-01-01 00:43:57.836962005,E4_Acc,2024-06-28 14:02:24.811450005,12.0,63.0,8.0
1904-01-01 00:43:57.868212005,E4_Acc,2024-06-28 14:02:24.842700005,11.0,62.0,8.0
1904-01-01 00:43:57.899462005,E4_Acc,2024-06-28 14:02:24.873950005,12.0,62.0,7.0
1904-01-01 00:43:57.930712005,E4_Acc,2024-06-28 14:02:24.905200005,12.0,62.0,7.0
1904-01-01 00:43:57.961962005,E4_Acc,2024-06-28 14:02:24.936450005,12.0,63.0,7.0
1904-01-01 00:43:57.993222018,E4_Acc,2024-06-28 14:02:24.967710018,12.0,63.0,8.0
1904-01-01 00:43:58.024472018,E4_Acc,2024-06-28 14:02:24.998960018,12.0,62.0,8.0
1904-01-01 00:43:58.055722018,E4_Acc,2024-06-28 14:02:25.030210018,12.0,62.0,8.0
1904-01-01 00:43:58.086972018,E4_Acc,2024-06-28 14:02:25.061460018,11.0,63.0,8.0
1904-01-01 00:43:58.118222018,E4_Acc,2024-06-28 14:02:25.092710018,12.0,63.0,8.0
1904-01-01 00:43:58.149472018,E4_Acc,2024-06-28 14:02:25.123960018,11.0,63.0,8.0
1904-01-01 00:43:58.180722018,E4_Acc,2024-06-28 14:02:25.155210018,11.0,63.0,8.0
1904-01-01 00:43:58.211982032,E4_Acc,2024-06-28 14:02:25.186470032,11.0,63.0,8.0
1904-01-01 00:43:58.243232032,E4_Acc,2024-06-28 14:02:25.217720032,11.0,63.0,8.0
1904-01-01 00:43:58.274482032,E4_Acc,2024-06-28 14:02:25.248970032,12.0,63.0,8.0
1904-01-01 00:43:58.305732032,E4_Acc,2024-06-28 14:02:25.280220032,12.0,63.0,8.0
1904-01-01 00:43:58.336982032,E4_Acc,2024-06-28 14:02:25.311470032,12.0,63.0,8.0
1904-01-01 00:43:58.368232032,E4_Acc,2024-06-28 14:02:25.342720032,12.0,63.0,8.0
1904-01-01 00:43:58.399482032,E4_Acc,2024-06-28 14:02:25.373970032,13.0,63.0,7.0
1904-01-01 00:43:58.430742045,E4_Acc,2024-06-28 14:02:25.405230045,12.0,63.0,7.0
1904-01-01 00:43:58.461992045,E4_Acc,2024-06-28 14:02:25.436480045,12.0,63.0,7.0
1904-01-01 00:43:58.493242045,E4_Acc,2024-06-28 14:02:25.467730045,12.0,63.0,8.0
1904-01-01 00:43:58.524492045,E4_Acc,2024-06-28 14:02:25.498980045,12.0,62.0,8.0
1904-01-01 00:43:58.555742045,E4_Acc,2024-06-28 14:02:25.530230045,12.0,62.0,7.0
1904-01-01 00:43:58.586992045,E4_Acc,2024-06-28 14:02:25.561480045,12.0,63.0,8.0
1904-01-01 00:43:58.618242045,E4_Acc,2024-06-28 14:02:25.592730045,11.0,63.0,8.0
1904-01-01 00:43:58.649502059,E4_Acc,2024-06-28 14:02:25.623990059,11.0,63.0,8.0
1904-01-01 00:43:58.680752059,E4_Acc,2024-06-28 14:02:25.655240059,12.0,63.0,8.0
1904-01-01 00:43:58.712002059,E4_Acc,2024-06-28 14:02:25.686490059,12.0,63.0,8.0
1904-01-01 00:43:58.743252059,E4_Acc,2024-06-28 14:02:25.717740059,12.0,63.0,8.0
1904-01-01 00:43:58.774502059,E4_Acc,2024-06-28 14:02:25.748990059,12.0,63.0,7.0
1904-01-01 00:43:58.805752059,E4_Acc,2024-06-28 14:02:25.780240059,13.0,63.0,7.0
1904-01-01 00:43:58.837002059,E4_Acc,2024-06-28 14:02:25.811490059,13.0,63.0,7.0
1904-01-01 00:43:58.868262072,E4_Acc,2024-06-28 14:02:25.842750072,13.0,63.0,7.0
1904-01-01 00:43:58.899512072,E4_Acc,2024-06-28 14:02:25.874000072,13.0,63.0,7.0
1904-01-01 00:43:58.930762072,E4_Acc,2024-06-28 14:02:25.905250072,12.0,63.0,7.0
1904-01-01 00:43:58.962012072,E4_Acc,2024-06-28 14:02:25.936500072,12.0,63.0,7.0
1904-01-01 00:43:58.993262072,E4_Acc,2024-06-28 14:02:25.967750072,12.0,63.0,7.0
1904-01-01 00:43:59.024512072,E4_Acc,2024-06-28 14:02:25.999000072,12.0,63.0,8.0
1904-01-01 00:43:59.055762072,E4_Acc,2024-06-28 14:02:26.030250072,12.0,63.0,8.0
1904-01-01 00:43:59.087022086,E4_Acc,2024-06-28 14:02:26.061510086,11.0,63.0,8.0
1904-01-01 00:43:59.118272086,E4_Acc,2024-06-28 14:02:26.092760086,11.0,63.0,8.0
1904-01-01 00:43:59.149522086,E4_Acc,2024-06-28 14:02:26.124010086,11.0,63.0,8.0
1904-01-01 00:43:59.180772086,E4_Acc,2024-06-28 14:02:26.155260086,12.0,63.0,7.0
1904-01-01 00:43:59.212022086,E4_Acc,2024-06-28 14:02:26.186510086,12.0,63.0,7.0
1904-01-01 00:43:59.243272086,E4_Acc,2024-06-28 14:02:26.217760086,13.0,63.0,7.0
1904-01-01 00:43:59.274522086,E4_Acc,2024-06-28 14:02:26.249010086,12.0,63.0,7.0
1904-01-01 00:43:59.305782100,E4_Acc,2024-06-28 14:02:26.280270100,12.0,63.0,8.0
1904-01-01 00:43:59.337032100,E4_Acc,2024-06-28 14:02:26.311520100,12.0,63.0,8.0
1904-01-01 00:43:59.368282100,E4_Acc,2024-06-28 14:02:26.342770100,12.0,62.0,8.0
1904-01-01 00:43:59.399532100,E4_Acc,2024-06-28 14:02:26.374020100,13.0,63.0,8.0
1904-01-01 00:43:59.430782100,E4_Acc,2024-06-28 14:02:26.405270100,12.0,63.0,8.0
1904-01-01 00:43:59.462032100,E4_Acc,2024-06-28 14:02:26.436520100,12.0,63.0,8.0
1904-01-01 00:43:59.493282100,E4_Acc,2024-06-28 14:02:26.467770100,12.0,63.0,8.0
1904-01-01 00:43:59.524542113,E4_Acc,2024-06-28 14:02:26.499030113,12.0,63.0,8.0
1904-01-01 00:43:59.555792113,E4_Acc,2024-06-28 14:02:26.530280113,11.0,63.0,8.0
1904-01-01 00:43:59.587042113,E4_Acc,2024-06-28 14:02:26.561530113,12.0,63.0,7.0
1904-01-01 00:43:59.618292113,E4_Acc,2024-06-28 14:02:26.592780113,12.0,63.0,7.0
1904-01-01 00:43:59.649542113,E4_Acc,2024-06-28 14:02:26.624030113,12.0,62.0,7.0
1904-01-01 00:43:59.680792113,E4_Acc,2024-06-28 14:02:26.655280113,12.0,63.0,8.0
1904-01-01 00:43:59.712042113,E4_Acc,2024-06-28 14:02:26.686530113,12.0,63.0,8.0
1904-01-01 00:43:59.743301888,E4_Acc,2024-06-28 14:02:26.717789888,12.0,63.0,8.0
1904-01-01 00:43:59.774551888,E4_Acc,2024-06-28 14:02:26.749039888,11.0,62.0,8.0
1904-01-01 00:43:59.805801888,E4_Acc,2024-06-28 14:02:26.780289888,12.0,62.0,7.0
1904-01-01 00:43:59.837051888,E4_Acc,2024-06-28 14:02:26.811539888,12.0,63.0,7.0
1904-01-01 00:43:59.868301888,E4_Acc,2024-06-28 14:02:26.842789888,12.0,63.0,7.0
1904-01-01 00:43:59.899551888,E4_Acc,2024-06-28 14:02:26.874039888,12.0,63.0,7.0
1904-01-01 00:43:59.930801888,E4_Acc,2024-06-28 14:02:26.905289888,12.0,63.0,8.0
1904-01-01 00:43:59.962061902,E4_Acc,2024-06-28 14:02:26.936549902,11.0,63.0,8.0
1904-01-01 00:43:59.993311902,E4_Acc,2024-06-28 14:02:26.967799902,11.0,62.0,8.0
1904-01-01 00:44:00.024561902,E4_Acc,2024-06-28 14:02:26.999049902,11.0,63.0,8.0
1904-01-01 00:44:00.055811902,E4_Acc,2024-06-28 14:02:27.030299902,11.0,63.0,8.0
1904-01-01 00:44:00.087061902,E4_Acc,2024-06-28 14:02:27.061549902,12.0,63.0,7.0
1904-01-01 00:44:00.118311902,E4_Acc,2024-06-28 14:02:27.092799902,12.0,62.0,7.0
1904-01-01 00:44:00.149561902,E4_Acc,2024-06-28 14:02:27.124049902,12.0,63.0,7.0
1904-01-01 00:44:00.180821916,E4_Acc,2024-06-28 14:02:27.155309916,12.0,62.0,7.0
1904-01-01 00:44:00.212071916,E4_Acc,2024-06-28 14:02:27.186559916,12.0,63.0,8.0
1904-01-01 00:44:00.243321916,E4_Acc,2024-06-28 14:02:27.217809916,12.0,63.0,8.0
1904-01-01 00:44:00.274571916,E4_Acc,2024-06-28 14:02:27.249059916,12.0,62.0,8.0
1904-01-01 00:44:00.305821916,E4_Acc,2024-06-28 14:02:27.280309916,12.0,63.0,8.0
1904-01-01 00:44:00.337071916,E4_Acc,2024-06-28 14:02:27.311559916,11.0,63.0,8.0
1904-01-01 00:44:00.368331929,E4_Acc,2024-06-28 14:02:27.342819929,12.0,63.0,8.0
1904-01-01 00:44:00.399581929,E4_Acc,2024-06-28 14:02:27.374069929,11.0,63.0,8.0
1904-01-01 00:44:00.430831929,E4_Acc,2024-06-28 14:02:27.405319929,12.0,62.0,8.0
1904-01-01 00:44:00.462081929,E4_Acc,2024-06-28 14:02:27.436569929,12.0,62.0,8.0
1904-01-01 00:44:00.493331929,E4_Acc,2024-06-28 14:02:27.467819929,12.0,63.0,7.0
1904-01-01 00:44:00.524581929,E4_Acc,2024-06-28 14:02:27.499069929,12.0,63.0,7.0
1904-01-01 00:44:00.555831929,E4_Acc,2024-06-28 14:02:27.530319929,12.0,63.0,7.0
1904-01-01 00:44:00.587091943,E4_Acc,2024-06-28 14:02:27.561579943,12.0,63.0,8.0
1904-01-01 00:44:00.618341943,E4_Acc,2024-06-28 14:02:27.592829943,12.0,63.0,8.0
1904-01-01 00:44:00.649591943,E4_Acc,2024-06-28 14:02:27.624079943,12.0,63.0,8.0
1904-01-01 00:44:00.680841943,E4_Acc,2024-06-28 14:02:27.655329943,12.0,63.0,8.0
1904-01-01 00:44:00.712091943,E4_Acc,2024-06-28 14:02:27.686579943,12.0,63.0,8.0
1904-01-01 00:44:00.743341943,E4_Acc,2024-06-28 14:02:27.717829943,12.0,63.0,8.0
1904-01-01 00:44:00.774591943,E4_Acc,2024-06-28 14:02:27.749079943,12.0,63.0,8.0
1904-01-01 00:44:00.805851956,E4_Acc,2024-06-28 14:02:27.780339956,12.0,63.0,8.0
1904-01-01 00:44:00.837101956,E4_Acc,2024-06-28 14:02:27.811589956,12.0,63.0,8.0
1904-01-01 00:44:00.868351956,E4_Acc,2024-06-28 14:02:27.842839956,12.0,63.0,8.0
1904-01-01 00:44:00.899601956,E4_Acc,2024-06-28 14:02:27.874089956,12.0,63.0,7.0
1904-01-01 00:44:00.930851956,E4_Acc,2024-06-28 14:02:27.905339956,12.0,63.0,8.0
1904-01-01 00:44:00.962101956,E4_Acc,2024-06-28 14:02:27.936589956,12.0,63.0,8.0
1904-01-01 00:44:00.993351956,E4_Acc,2024-06-28 14:02:27.967839956,12.0,63.0,8.0
1904-01-01 00:44:01.024611970,E4_Acc,2024-06-28 14:02:27.999099970,12.0,63.0,8.0
1904-01-01 00:44:01.055861970,E4_Acc,2024-06-28 14:02:28.030349970,12.0,62.0,8.0
1904-01-01 00:44:01.087111970,E4_Acc,2024-06-28 14:02:28.061599970,12.0,62.0,8.0
1904-01-01 00:44:01.118361970,E4_Acc,2024-06-28 14:02:28.092849970,13.0,63.0,8.0
1904-01-01 00:44:01.149611970,E4_Acc,2024-06-28 14:02:28.124099970,13.0,63.0,8.0
1904-01-01 00:44:01.180861970,E4_Acc,2024-06-28 14:02:28.155349970,12.0,63.0,8.0
1904-01-01 00:44:01.212111970,E4_Acc,2024-06-28 14:02:28.186599970,12.0,63.0,8.0
1904-01-01 00:44:01.243371983,E4_Acc,2024-06-28 14:02:28.217859983,12.0,63.0,8.0
1904-01-01 00:44:01.274621983,E4_Acc,2024-06-28 14:02:28.249109983,12.0,63.0,8.0
1904-01-01 00:44:01.305871983,E4_Acc,2024-06-28 14:02:28.280359983,12.0,63.0,8.0
1904-01-01 00:44:01.337121983,E4_Acc,2024-06-28 14:02:28.311609983,12.0,63.0,8.0
1904-01-01 00:44:01.368371983,E4_Acc,2024-06-28 14:02:28.342859983,12.0,63.0,8.0
1904-01-01 00:44:01.399621983,E4_Acc,2024-06-28 14:02:28.374109983,12.0,63.0,8.0
1904-01-01 00:44:01.430871983,E4_Acc,2024-06-28 14:02:28.405359983,12.0,63.0,8.0
1904-01-01 00:44:01.462131997,E4_Acc,2024-06-28 14:02:28.436619997,12.0,63.0,8.0
1904-01-01 00:44:01.493381997,E4_Acc,2024-06-28 14:02:28.467869997,12.0,63.0,8.0
1904-01-01 00:44:01.524631997,E4_Acc,2024-06-28 14:02:28.499119997,12.0,63.0,8.0
1904-01-01 00:44:01.555881997,E4_Acc,2024-06-28 14:02:28.530369997,12.0,63.0,8.0
1904-01-01 00:44:01.587131997,E4_Acc,2024-06-28 14:02:28.561619997,12.0,62.0,8.0
1904-01-01 00:44:01.618381997,E4_Acc,2024-06-28 14:02:28.592869997,12.0,63.0,8.0
1904-01-01 00:44:01.649631997,E4_Acc,2024-06-28 14:02:28.624119997,12.0,63.0,8.0
1904-01-01 00:44:01.680892011,E4_Acc,2024-06-28 14:02:28.655380011,12.0,63.0,8.0
1904-01-01 00:44:01.712142011,E4_Acc,2024-06-28 14:02:28.686630011,12.0,62.0,8.0
1904-01-01 00:44:01.743392011,E4_Acc,2024-06-28 14:02:28.717880011,12.0,63.0,8.0
1904-01-01 00:44:01.774642011,E4_Acc,2024-06-28 14:02:28.749130011,12.0,63.0,8.0
1904-01-01 00:44:01.805892011,E4_Acc,2024-06-28 14:02:28.780380011,12.0,63.0,8.0
1904-01-01 00:44:01.837142011,E4_Acc,2024-06-28 14:02:28.811630011,12.0,63.0,8.0
1904-01-01 00:44:01.868392011,E4_Acc,2024-06-28 14:02:28.842880011,12.0,63.0,8.0
1904-01-01 00:44:01.899652024,E4_Acc,2024-06-28 14:02:28.874140024,12.0,63.0,8.0
1904-01-01 00:44:01.930902024,E4_Acc,2024-06-28 14:02:28.905390024,12.0,62.0,8.0
1904-01-01 00:44:01.962152024,E4_Acc,2024-06-28 14:02:28.936640024,12.0,63.0,8.0
1904-01-01 00:44:01.993402024,E4_Acc,2024-06-28 14:02:28.967890024,12.0,63.0,8.0
1904-01-01 00:44:02.024652024,E4_Acc,2024-06-28 14:02:28.999140024,12.0,63.0,8.0
1904-01-01 00:44:02.055902024,E4_Acc,2024-06-28 14:02:29.030390024,12.0,62.0,8.0
1904-01-01 00:44:02.087152024,E4_Acc,2024-06-28 14:02:29.061640024,13.0,62.0,8.0
1904-01-01 00:44:02.118412038,E4_Acc,2024-06-28 14:02:29.092900038,13.0,62.0,7.0
1904-01-01 00:44:02.149662038,E4_Acc,2024-06-28 14:02:29.124150038,13.0,63.0,8.0
1904-01-01 00:44:02.180912038,E4_Acc,2024-06-28 14:02:29.155400038,12.0,63.0,8.0
1904-01-01 00:44:02.212162038,E4_Acc,2024-06-28 14:02:29.186650038,13.0,63.0,8.0
1904-01-01 00:44:02.243412038,E4_Acc,2024-06-28 14:02:29.217900038,12.0,62.0,8.0
1904-01-01 00:44:02.274662038,E4_Acc,2024-06-28 14:02:29.249150038,12.0,62.0,8.0
1904-01-01 00:44:02.305912038,E4_Acc,2024-06-28 14:02:29.280400038,12.0,63.0,8.0
1904-01-01 00:44:02.337172051,E4_Acc,2024-06-28 14:02:29.311660051,12.0,63.0,9.0
1904-01-01 00:44:02.368422051,E4_Acc,2024-06-28 14:02:29.342910051,12.0,63.0,8.0
1904-01-01 00:44:02.399672051,E4_Acc,2024-06-28 14:02:29.374160051,12.0,63.0,8.0
1904-01-01 00:44:02.430922051,E4_Acc,2024-06-28 14:02:29.405410051,12.0,63.0,8.0
1904-01-01 00:44:02.462172051,E4_Acc,2024-06-28 14:02:29.436660051,12.0,63.0,8.0
1904-01-01 00:44:02.493422051,E4_Acc,2024-06-28 14:02:29.467910051,12.0,63.0,8.0
1904-01-01 00:44:02.524672051,E4_Acc,2024-06-28 14:02:29.499160051,12.0,63.0,8.0
1904-01-01 00:44:02.555932065,E4_Acc,2024-06-28 14:02:29.530420065,12.0,63.0,8.0
1904-01-01 00:44:02.587182065,E4_Acc,2024-06-28 14:02:29.561670065,12.0,63.0,8.0
1904-01-01 00:44:02.618432065,E4_Acc,2024-06-28 14:02:29.592920065,12.0,62.0,8.0
1904-01-01 00:44:02.649682065,E4_Acc,2024-06-28 14:02:29.624170065,12.0,63.0,7.0
1904-01-01 00:44:02.680932065,E4_Acc,2024-06-28 14:02:29.655420065,13.0,63.0,8.0
1904-01-01 00:44:02.712182065,E4_Acc,2024-06-28 14:02:29.686670065,13.0,63.0,8.0
1904-01-01 00:44:02.743442079,E4_Acc,2024-06-28 14:02:29.717930079,12.0,63.0,8.0
1904-01-01 00:44:02.774692079,E4_Acc,2024-06-28 14:02:29.749180079,12.0,63.0,8.0
1904-01-01 00:44:02.805942079,E4_Acc,2024-06-28 14:02:29.780430079,12.0,63.0,8.0
1904-01-01 00:44:02.837192079,E4_Acc,2024-06-28 14:02:29.811680079,12.0,63.0,8.0
1904-01-01 00:44:02.868442079,E4_Acc,2024-06-28 14:02:29.842930079,12.0,63.0,8.0
1904-01-01 00:44:02.899692079,E4_Acc,2024-06-28 14:02:29.874180079,12.0,63.0,8.0
1904-01-01 00:44:02.930942079,E4_Acc,2024-06-28 14:02:29.905430079,12.0,63.0,8.0
1904-01-01 00:44:02.962202092,E4_Acc,2024-06-28 14:02:29.936690092,12.0,62.0,8.0
1904-01-01 00:44:02.993452092,E4_Acc,2024-06-28 14:02:29.967940092,12.0,63.0,8.0
1904-01-01 00:44:03.024702092,E4_Acc,2024-06-28 14:02:29.999190092,13.0,63.0,8.0
1904-01-01 00:44:03.055952092,E4_Acc,2024-06-28 14:02:30.030440092,13.0,63.0,8.0
1904-01-01 00:44:03.087202092,E4_Acc,2024-06-28 14:02:30.061690092,12.0,62.0,8.0
1904-01-01 00:44:03.118452092,E4_Acc,2024-06-28 14:02:30.092940092,13.0,63.0,7.0
1904-01-01 00:44:03.149702092,E4_Acc,2024-06-28 14:02:30.124190092,13.0,63.0,7.0
1904-01-01 00:44:03.180962106,E4_Acc,2024-06-28 14:02:30.155450106,13.0,63.0,8.0
1904-01-01 00:44:03.212212106,E4_Acc,2024-06-28 14:02:30.186700106,12.0,63.0,8.0
1904-01-01 00:44:03.243462106,E4_Acc,2024-06-28 14:02:30.217950106,13.0,63.0,8.0
1904-01-01 00:44:03.274712106,E4_Acc,2024-06-28 14:02:30.249200106,12.0,63.0,8.0
1904-01-01 00:44:03.305962106,E4_Acc,2024-06-28 14:02:30.280450106,12.0,63.0,8.0
1904-01-01 00:44:03.337212106,E4_Acc,2024-06-28 14:02:30.311700106,12.0,63.0,8.0
1904-01-01 00:44:03.368462106,E4_Acc,2024-06-28 14:02:30.342950106,12.0,63.0,8.0
1904-01-01 00:44:03.399721881,E4_Acc,2024-06-28 14:02:30.374209881,12.0,63.0,8.0
1904-01-01 00:44:03.430971881,E4_Acc,2024-06-28 14:02:30.405459881,12.0,63.0,8.0
1904-01-01 00:44:03.462221881,E4_Acc,2024-06-28 14:02:30.436709881,12.0,62.0,8.0
1904-01-01 00:44:03.493471881,E4_Acc,2024-06-28 14:02:30.467959881,13.0,63.0,7.0
1904-01-01 00:44:03.524721881,E4_Acc,2024-06-28 14:02:30.499209881,13.0,63.0,8.0
1904-01-01 00:44:03.555971880,E4_Acc,2024-06-28 14:02:30.530459880,13.0,63.0,8.0
1904-01-01 00:44:03.587221881,E4_Acc,2024-06-28 14:02:30.561709881,13.0,63.0,8.0
1904-01-01 00:44:03.618481894,E4_Acc,2024-06-28 14:02:30.592969894,13.0,63.0,8.0
1904-01-01 00:44:03.649731894,E4_Acc,2024-06-28 14:02:30.624219894,13.0,63.0,8.0
1904-01-01 00:44:03.680981894,E4_Acc,2024-06-28 14:02:30.655469894,13.0,63.0,8.0
1904-01-01 00:44:03.712231894,E4_Acc,2024-06-28 14:02:30.686719894,13.0,63.0,8.0
1904-01-01 00:44:03.743481894,E4_Acc,2024-06-28 14:02:30.717969894,12.0,63.0,8.0
1904-01-01 00:44:03.774731894,E4_Acc,2024-06-28 14:02:30.749219894,12.0,63.0,8.0
1904-01-01 00:44:03.805981894,E4_Acc,2024-06-28 14:02:30.780469894,12.0,62.0,8.0
1904-01-01 00:44:03.837241908,E4_Acc,2024-06-28 14:02:30.811729908,12.0,62.0,8.0
1904-01-01 00:44:03.868491908,E4_Acc,2024-06-28 14:02:30.842979908,13.0,63.0,8.0
1904-01-01 00:44:03.899741908,E4_Acc,2024-06-28 14:02:30.874229908,13.0,63.0,8.0
1904-01-01 00:44:03.930991908,E4_Acc,2024-06-28 14:02:30.905479908,12.0,62.0,7.0
1904-01-01 00:44:03.962241908,E4_Acc,2024-06-28 14:02:30.936729908,13.0,62.0,8.0
1904-01-01 00:44:03.993491908,E4_Acc,2024-06-28 14:02:30.967979908,12.0,62.0,8.0
1904-01-01 00:44:04.024741908,E4_Acc,2024-06-28 14:02:30.999229908,13.0,62.0,8.0
1904-01-01 00:44:04.056001922,E4_Acc,2024-06-28 14:02:31.030489922,13.0,63.0,8.0
1904-01-01 00:44:04.087251922,E4_Acc,2024-06-28 14:02:31.061739922,13.0,63.0,7.0
1904-01-01 00:44:04.118501922,E4_Acc,2024-06-28 14:02:31.092989922,13.0,63.0,8.0
1904-01-01 00:44:04.149751922,E4_Acc,2024-06-28 14:02:31.124239922,12.0,62.0,8.0
1904-01-01 00:44:04.181001922,E4_Acc,2024-06-28 14:02:31.155489922,12.0,62.0,8.0
1904-01-01 00:44:04.212251922,E4_Acc,2024-06-28 14:02:31.186739922,12.0,63.0,8.0
1904-01-01 00:44:04.243501922,E4_Acc,2024-06-28 14:02:31.217989922,12.0,63.0,8.0
1904-01-01 00:44:04.274761935,E4_Acc,2024-06-28 14:02:31.249249935,12.0,63.0,8.0
1904-01-01 00:44:04.306011935,E4_Acc,2024-06-28 14:02:31.280499935,12.0,63.0,8.0
1904-01-01 00:44:04.337261935,E4_Acc,2024-06-28 14:02:31.311749935,12.0,63.0,8.0
1904-01-01 00:44:04.368511935,E4_Acc,2024-06-28 14:02:31.342999935,12.0,62.0,8.0
1904-01-01 00:44:04.399761935,E4_Acc,2024-06-28 14:02:31.374249935,12.0,63.0,8.0
1904-01-01 00:44:04.431011935,E4_Acc,2024-06-28 14:02:31.405499935,12.0,63.0,8.0
1904-01-01 00:44:04.462261935,E4_Acc,2024-06-28 14:02:31.436749935,13.0,63.0,8.0
1904-01-01 00:44:04.493521949,E4_Acc,2024-06-28 14:02:31.468009949,13.0,63.0,8.0
1904-01-01 00:44:04.524771949,E4_Acc,2024-06-28 14:02:31.499259949,13.0,62.0,8.0
1904-01-01 00:44:04.556021949,E4_Acc,2024-06-28 14:02:31.530509949,13.0,62.0,8.0
1904-01-01 00:44:04.587271949,E4_Acc,2024-06-28 14:02:31.561759949,13.0,63.0,8.0
1904-01-01 00:44:04.618521949,E4_Acc,2024-06-28 14:02:31.593009949,13.0,63.0,8.0
1904-01-01 00:44:04.649771949,E4_Acc,2024-06-28 14:02:31.624259949,13.0,63.0,8.0
1904-01-01 00:44:04.681021949,E4_Acc,2024-06-28 14:02:31.655509949,13.0,63.0,8.0
1904-01-01 00:44:04.712281962,E4_Acc,2024-06-28 14:02:31.686769962,12.0,63.0,8.0
1904-01-01 00:44:04.743531962,E4_Acc,2024-06-28 14:02:31.718019962,12.0,62.0,8.0
1904-01-01 00:44:04.774781962,E4_Acc,2024-06-28 14:02:31.749269962,12.0,63.0,8.0
1904-01-01 00:44:04.806031962,E4_Acc,2024-06-28 14:02:31.780519962,12.0,63.0,8.0
1904-01-01 00:44:04.837281962,E4_Acc,2024-06-28 14:02:31.811769962,12.0,63.0,8.0
1904-01-01 00:44:04.868531962,E4_Acc,2024-06-28 14:02:31.843019962,12.0,63.0,8.0
1904-01-01 00:44:04.899781962,E4_Acc,2024-06-28 14:02:31.874269962,12.0,63.0,8.0
1904-01-01 00:44:04.931041976,E4_Acc,2024-06-28 14:02:31.905529976,12.0,63.0,8.0
1904-01-01 00:44:04.962291976,E4_Acc,2024-06-28 14:02:31.936779976,12.0,63.0,8.0
1904-01-01 00:44:04.993541976,E4_Acc,2024-06-28 14:02:31.968029976,12.0,62.0,8.0
1904-01-01 00:44:05.024791976,E4_Acc,2024-06-28 14:02:31.999279976,13.0,63.0,8.0
1904-01-01 00:44:05.056041976,E4_Acc,2024-06-28 14:02:32.030529976,13.0,63.0,8.0
1904-01-01 00:44:05.087291976,E4_Acc,2024-06-28 14:02:32.061779976,13.0,63.0,8.0
1904-01-01 00:44:05.118541976,E4_Acc,2024-06-28 14:02:32.093029976,12.0,63.0,8.0
1904-01-01 00:44:05.149801989,E4_Acc,2024-06-28 14:02:32.124289989,12.0,62.0,8.0
1904-01-01 00:44:05.181051989,E4_Acc,2024-06-28 14:02:32.155539989,12.0,63.0,8.0
1904-01-01 00:44:05.212301989,E4_Acc,2024-06-28 14:02:32.186789989,12.0,63.0,8.0
1904-01-01 00:44:05.243551989,E4_Acc,2024-06-28 14:02:32.218039989,12.0,62.0,8.0
1904-01-01 00:44:05.274801989,E4_Acc,2024-06-28 14:02:32.249289989,12.0,62.0,8.0
1904-01-01 00:44:05.306051989,E4_Acc,2024-06-28 14:02:32.280539989,12.0,63.0,8.0
1904-01-01 00:44:05.337312003,E4_Acc,2024-06-28 14:02:32.311800003,13.0,63.0,8.0
1904-01-01 00:44:05.368562003,E4_Acc,2024-06-28 14:02:32.343050003,13.0,63.0,8.0
1904-01-01 00:44:05.399812003,E4_Acc,2024-06-28 14:02:32.374300003,12.0,62.0,8.0
1904-01-01 00:44:05.431062003,E4_Acc,2024-06-28 14:02:32.405550003,13.0,62.0,8.0
1904-01-01 00:44:05.462312003,E4_Acc,2024-06-28 14:02:32.436800003,12.0,63.0,8.0
1904-01-01 00:44:05.493562003,E4_Acc,2024-06-28 14:02:32.468050003,12.0,63.0,8.0
1904-01-01 00:44:05.524812003,E4_Acc,2024-06-28 14:02:32.499300003,12.0,63.0,8.0
1904-01-01 00:44:05.556072017,E4_Acc,2024-06-28 14:02:32.530560017,12.0,63.0,8.0
1904-01-01 00:44:05.587322017,E4_Acc,2024-06-28 14:02:32.561810017,12.0,63.0,8.0
1904-01-01 00:44:05.618572017,E4_Acc,2024-06-28 14:02:32.593060017,12.0,62.0,7.0
1904-01-01 00:44:05.649822017,E4_Acc,2024-06-28 14:02:32.624310017,12.0,63.0,8.0
1904-01-01 00:44:05.681072017,E4_Acc,2024-06-28 14:02:32.655560017,12.0,63.0,8.0
1904-01-01 00:44:05.712322017,E4_Acc,2024-06-28 14:02:32.686810017,12.0,63.0,7.0
1904-01-01 00:44:05.743572017,E4_Acc,2024-06-28 14:02:32.718060017,12.0,63.0,8.0
1904-01-01 00:44:05.774832030,E4_Acc,2024-06-28 14:02:32.749320030,12.0,63.0,8.0
1904-01-01 00:44:05.806082030,E4_Acc,2024-06-28 14:02:32.780570030,12.0,63.0,8.0
1904-01-01 00:44:05.837332030,E4_Acc,2024-06-28 14:02:32.811820030,12.0,63.0,8.0
1904-01-01 00:44:05.868582030,E4_Acc,2024-06-28 14:02:32.843070030,12.0,63.0,8.0
1904-01-01 00:44:05.899832030,E4_Acc,2024-06-28 14:02:32.874320030,12.0,63.0,8.0
1904-01-01 00:44:05.931082030,E4_Acc,2024-06-28 14:02:32.905570030,12.0,63.0,8.0
1904-01-01 00:44:05.962332030,E4_Acc,2024-06-28 14:02:32.936820030,12.0,62.0,8.0
1904-01-01 00:44:05.993592044,E4_Acc,2024-06-28 14:02:32.968080044,12.0,62.0,8.0
1904-01-01 00:44:06.024842044,E4_Acc,2024-06-28 14:02:32.999330044,12.0,62.0,7.0
1904-01-01 00:44:06.056092044,E4_Acc,2024-06-28 14:02:33.030580044,12.0,63.0,7.0
1904-01-01 00:44:06.087342044,E4_Acc,2024-06-28 14:02:33.061830044,12.0,63.0,7.0
1904-01-01 00:44:06.118592044,E4_Acc,2024-06-28 14:02:33.093080044,12.0,63.0,7.0
1904-01-01 00:44:06.149842044,E4_Acc,2024-06-28 14:02:33.124330044,12.0,62.0,7.0
1904-01-01 00:44:06.181092044,E4_Acc,2024-06-28 14:02:33.155580044,12.0,63.0,8.0
1904-01-01 00:44:06.212352057,E4_Acc,2024-06-28 14:02:33.186840057,12.0,63.0,8.0
1904-01-01 00:44:06.243602057,E4_Acc,2024-06-28 14:02:33.218090057,12.0,63.0,8.0
1904-01-01 00:44:06.274852057,E4_Acc,2024-06-28 14:02:33.249340057,12.0,63.0,8.0
1904-01-01 00:44:06.306102057,E4_Acc,2024-06-28 14:02:33.280590057,12.0,63.0,8.0
1904-01-01 00:44:06.337352057,E4_Acc,2024-06-28 14:02:33.311840057,12.0,63.0,8.0
1904-01-01 00:44:06.368602057,E4_Acc,2024-06-28 14:02:33.343090057,12.0,63.0,8.0
1904-01-01 00:44:06.399852057,E4_Acc,2024-06-28 14:02:33.374340057,12.0,63.0,7.0
1904-01-01 00:44:06.431112071,E4_Acc,2024-06-28 14:02:33.405600071,12.0,63.0,7.0
1904-01-01 00:44:06.462362071,E4_Acc,2024-06-28 14:02:33.436850071,12.0,63.0,7.0
1904-01-01 00:44:06.493612071,E4_Acc,2024-06-28 14:02:33.468100071,12.0,63.0,7.0
1904-01-01 00:44:06.524862071,E4_Acc,2024-06-28 14:02:33.499350071,11.0,63.0,7.0
1904-01-01 00:44:06.556112070,E4_Acc,2024-06-28 14:02:33.530600070,11.0,63.0,7.0
1904-01-01 00:44:06.587362071,E4_Acc,2024-06-28 14:02:33.561850071,12.0,63.0,7.0
1904-01-01 00:44:06.618612071,E4_Acc,2024-06-28 14:02:33.593100071,12.0,63.0,8.0
1904-01-01 00:44:06.649872085,E4_Acc,2024-06-28 14:02:33.624360085,12.0,63.0,8.0
1904-01-01 00:44:06.681122085,E4_Acc,2024-06-28 14:02:33.655610085,12.0,62.0,7.0
1904-01-01 00:44:06.712372085,E4_Acc,2024-06-28 14:02:33.686860085,12.0,63.0,7.0
1904-01-01 00:44:06.743622085,E4_Acc,2024-06-28 14:02:33.718110085,12.0,63.0,7.0
1904-01-01 00:44:06.774872085,E4_Acc,2024-06-28 14:02:33.749360085,12.0,63.0,7.0
1904-01-01 00:44:06.806122085,E4_Acc,2024-06-28 14:02:33.780610085,11.0,63.0,7.0
1904-01-01 00:44:06.837372085,E4_Acc,2024-06-28 14:02:33.811860085,11.0,63.0,7.0
1904-01-01 00:44:06.868632098,E4_Acc,2024-06-28 14:02:33.843120098,11.0,63.0,7.0
1904-01-01 00:44:06.899882098,E4_Acc,2024-06-28 14:02:33.874370098,11.0,63.0,7.0
1904-01-01 00:44:06.931132098,E4_Acc,2024-06-28 14:02:33.905620098,12.0,63.0,7.0
1904-01-01 00:44:06.962382098,E4_Acc,2024-06-28 14:02:33.936870098,12.0,63.0,7.0
1904-01-01 00:44:06.993632098,E4_Acc,2024-06-28 14:02:33.968120098,12.0,63.0,7.0
1904-01-01 00:44:07.024882098,E4_Acc,2024-06-28 14:02:33.999370098,12.0,63.0,7.0
1904-01-01 00:44:07.056132098,E4_Acc,2024-06-28 14:02:34.030620098,12.0,63.0,7.0
1904-01-01 00:44:07.087392112,E4_Acc,2024-06-28 14:02:34.061880112,12.0,63.0,7.0
1904-01-01 00:44:07.118642112,E4_Acc,2024-06-28 14:02:34.093130112,11.0,63.0,7.0
1904-01-01 00:44:07.149892112,E4_Acc,2024-06-28 14:02:34.124380112,12.0,63.0,7.0
1904-01-01 00:44:07.181142112,E4_Acc,2024-06-28 14:02:34.155630112,12.0,63.0,7.0
1904-01-01 00:44:07.212392112,E4_Acc,2024-06-28 14:02:34.186880112,11.0,63.0,7.0
1904-01-01 00:44:07.243642112,E4_Acc,2024-06-28 14:02:34.218130112,11.0,63.0,7.0
1904-01-01 00:44:07.274892112,E4_Acc,2024-06-28 14:02:34.249380112,11.0,63.0,7.0
1904-01-01 00:44:07.306151887,E4_Acc,2024-06-28 14:02:34.280639887,11.0,63.0,7.0
1904-01-01 00:44:07.337401887,E4_Acc,2024-06-28 14:02:34.311889887,11.0,63.0,7.0
1904-01-01 00:44:07.368651887,E4_Acc,2024-06-28 14:02:34.343139887,11.0,63.0,7.0
1904-01-01 00:44:07.399901887,E4_Acc,2024-06-28 14:02:34.374389887,11.0,63.0,7.0
1904-01-01 00:44:07.431151887,E4_Acc,2024-06-28 14:02:34.405639887,12.0,63.0,7.0
1904-01-01 00:44:07.462401887,E4_Acc,2024-06-28 14:02:34.436889887,11.0,63.0,7.0
1904-01-01 00:44:07.493651887,E4_Acc,2024-06-28 14:02:34.468139887,11.0,63.0,7.0
1904-01-01 00:44:07.524911900,E4_Acc,2024-06-28 14:02:34.499399900,11.0,63.0,7.0
1904-01-01 00:44:07.556161900,E4_Acc,2024-06-28 14:02:34.530649900,11.0,63.0,7.0
1904-01-01 00:44:07.587411900,E4_Acc,2024-06-28 14:02:34.561899900,11.0,63.0,7.0
1904-01-01 00:44:07.618661900,E4_Acc,2024-06-28 14:02:34.593149900,11.0,63.0,7.0
1904-01-01 00:44:07.649911900,E4_Acc,2024-06-28 14:02:34.624399900,11.0,63.0,7.0
1904-01-01 00:44:07.681161900,E4_Acc,2024-06-28 14:02:34.655649900,11.0,63.0,7.0
1904-01-01 00:44:07.712421914,E4_Acc,2024-06-28 14:02:34.686909914,11.0,63.0,7.0
1904-01-01 00:44:07.743671914,E4_Acc,2024-06-28 14:02:34.718159914,11.0,63.0,7.0
1904-01-01 00:44:07.774921914,E4_Acc,2024-06-28 14:02:34.749409914,12.0,63.0,7.0
1904-01-01 00:44:07.806171914,E4_Acc,2024-06-28 14:02:34.780659914,12.0,63.0,7.0
1904-01-01 00:44:07.837421914,E4_Acc,2024-06-28 14:02:34.811909914,11.0,63.0,7.0
1904-01-01 00:44:07.868671914,E4_Acc,2024-06-28 14:02:34.843159914,11.0,63.0,7.0
1904-01-01 00:44:07.899921914,E4_Acc,2024-06-28 14:02:34.874409914,11.0,63.0,7.0
1904-01-01 00:44:07.931181928,E4_Acc,2024-06-28 14:02:34.905669928,11.0,63.0,7.0
1904-01-01 00:44:07.962431928,E4_Acc,2024-06-28 14:02:34.936919928,11.0,63.0,7.0
1904-01-01 00:44:07.993681928,E4_Acc,2024-06-28 14:02:34.968169928,11.0,63.0,7.0
1904-01-01 00:44:08.024931928,E4_Acc,2024-06-28 14:02:34.999419928,11.0,63.0,7.0
1904-01-01 00:44:08.056181928,E4_Acc,2024-06-28 14:02:35.030669928,11.0,63.0,7.0
1904-01-01 00:44:08.087431928,E4_Acc,2024-06-28 14:02:35.061919928,11.0,63.0,7.0
1904-01-01 00:44:08.118681928,E4_Acc,2024-06-28 14:02:35.093169928,11.0,63.0,7.0
1904-01-01 00:44:08.149941941,E4_Acc,2024-06-28 14:02:35.124429941,11.0,62.0,7.0
1904-01-01 00:44:08.181191941,E4_Acc,2024-06-28 14:02:35.155679941,11.0,62.0,7.0
1904-01-01 00:44:08.212441941,E4_Acc,2024-06-28 14:02:35.186929941,11.0,62.0,7.0
1904-01-01 00:44:08.243691941,E4_Acc,2024-06-28 14:02:35.218179941,12.0,63.0,7.0
1904-01-01 00:44:08.274941941,E4_Acc,2024-06-28 14:02:35.249429941,11.0,63.0,7.0
1904-01-01 00:44:08.306191941,E4_Acc,2024-06-28 14:02:35.280679941,11.0,63.0,7.0
1904-01-01 00:44:08.337441941,E4_Acc,2024-06-28 14:02:35.311929941,11.0,63.0,7.0
1904-01-01 00:44:08.368701955,E4_Acc,2024-06-28 14:02:35.343189955,11.0,62.0,7.0
1904-01-01 00:44:08.399951955,E4_Acc,2024-06-28 14:02:35.374439955,11.0,63.0,7.0
1904-01-01 00:44:08.431201955,E4_Acc,2024-06-28 14:02:35.405689955,11.0,63.0,7.0
1904-01-01 00:44:08.462451955,E4_Acc,2024-06-28 14:02:35.436939955,11.0,63.0,7.0
1904-01-01 00:44:08.493701955,E4_Acc,2024-06-28 14:02:35.468189955,11.0,63.0,7.0
1904-01-01 00:44:08.524951955,E4_Acc,2024-06-28 14:02:35.499439955,11.0,63.0,7.0
1904-01-01 00:44:08.556201955,E4_Acc,2024-06-28 14:02:35.530689955,11.0,63.0,7.0
1904-01-01 00:44:08.587461968,E4_Acc,2024-06-28 14:02:35.561949968,11.0,63.0,7.0
1904-01-01 00:44:08.618711968,E4_Acc,2024-06-28 14:02:35.593199968,11.0,63.0,7.0
1904-01-01 00:44:08.649961968,E4_Acc,2024-06-28 14:02:35.624449968,11.0,63.0,7.0
1904-01-01 00:44:08.681211968,E4_Acc,2024-06-28 14:02:35.655699968,11.0,63.0,7.0
1904-01-01 00:44:08.712461968,E4_Acc,2024-06-28 14:02:35.686949968,12.0,63.0,7.0
1904-01-01 00:44:08.743711968,E4_Acc,2024-06-28 14:02:35.718199968,12.0,63.0,7.0
1904-01-01 00:44:08.774961968,E4_Acc,2024-06-28 14:02:35.749449968,11.0,63.0,7.0
1904-01-01 00:44:08.806221982,E4_Acc,2024-06-28 14:02:35.780709982,12.0,63.0,7.0
1904-01-01 00:44:08.837471982,E4_Acc,2024-06-28 14:02:35.811959982,12.0,63.0,7.0
1904-01-01 00:44:08.868721982,E4_Acc,2024-06-28 14:02:35.843209982,12.0,63.0,7.0
1904-01-01 00:44:08.899971982,E4_Acc,2024-06-28 14:02:35.874459982,11.0,63.0,7.0
1904-01-01 00:44:08.931221982,E4_Acc,2024-06-28 14:02:35.905709982,11.0,63.0,7.0
1904-01-01 00:44:08.962471982,E4_Acc,2024-06-28 14:02:35.936959982,12.0,63.0,7.0
1904-01-01 00:44:08.993721982,E4_Acc,2024-06-28 14:02:35.968209982,12.0,63.0,7.0
1904-01-01 00:44:09.024981995,E4_Acc,2024-06-28 14:02:35.999469995,11.0,63.0,7.0
1904-01-01 00:44:09.056231995,E4_Acc,2024-06-28 14:02:36.030719995,11.0,63.0,7.0
1904-01-01 00:44:09.087481995,E4_Acc,2024-06-28 14:02:36.061969995,11.0,63.0,7.0
1904-01-01 00:44:09.118731995,E4_Acc,2024-06-28 14:02:36.093219995,11.0,63.0,7.0
1904-01-01 00:44:09.149981995,E4_Acc,2024-06-28 14:02:36.124469995,12.0,63.0,7.0
1904-01-01 00:44:09.181231995,E4_Acc,2024-06-28 14:02:36.155719995,11.0,63.0,7.0
1904-01-01 00:44:09.212481995,E4_Acc,2024-06-28 14:02:36.186969995,11.0,63.0,7.0
1904-01-01 00:44:09.243742009,E4_Acc,2024-06-28 14:02:36.218230009,11.0,63.0,8.0
1904-01-01 00:44:09.274992009,E4_Acc,2024-06-28 14:02:36.249480009,11.0,63.0,7.0
1904-01-01 00:44:09.306242009,E4_Acc,2024-06-28 14:02:36.280730009,11.0,63.0,7.0
1904-01-01 00:44:09.337492009,E4_Acc,2024-06-28 14:02:36.311980009,11.0,63.0,7.0
1904-01-01 00:44:09.368742009,E4_Acc,2024-06-28 14:02:36.343230009,12.0,63.0,7.0
1904-01-01 00:44:09.399992009,E4_Acc,2024-06-28 14:02:36.374480009,11.0,63.0,7.0
1904-01-01 00:44:09.431242009,E4_Acc,2024-06-28 14:02:36.405730009,11.0,63.0,7.0
1904-01-01 00:44:09.462502023,E4_Acc,2024-06-28 14:02:36.436990023,11.0,63.0,7.0
1904-01-01 00:44:09.493752023,E4_Acc,2024-06-28 14:02:36.468240023,11.0,63.0,7.0
1904-01-01 00:44:09.525002023,E4_Acc,2024-06-28 14:02:36.499490023,12.0,63.0,7.0
1904-01-01 00:44:09.556252023,E4_Acc,2024-06-28 14:02:36.530740023,11.0,63.0,7.0
1904-01-01 00:44:09.587502023,E4_Acc,2024-06-28 14:02:36.561990023,11.0,63.0,7.0
1904-01-01 00:44:09.618752023,E4_Acc,2024-06-28 14:02:36.593240023,11.0,63.0,7.0
1904-01-01 00:44:09.650002023,E4_Acc,2024-06-28 14:02:36.624490023,11.0,63.0,7.0
1904-01-01 00:44:09.681262036,E4_Acc,2024-06-28 14:02:36.655750036,11.0,63.0,7.0
1904-01-01 00:44:09.712512036,E4_Acc,2024-06-28 14:02:36.687000036,11.0,63.0,7.0
1904-01-01 00:44:09.743762036,E4_Acc,2024-06-28 14:02:36.718250036,11.0,63.0,7.0
1904-01-01 00:44:09.775012036,E4_Acc,2024-06-28 14:02:36.749500036,11.0,63.0,7.0
1904-01-01 00:44:09.806262036,E4_Acc,2024-06-28 14:02:36.780750036,11.0,63.0,7.0
1904-01-01 00:44:09.837512036,E4_Acc,2024-06-28 14:02:36.812000036,11.0,63.0,7.0
1904-01-01 00:44:09.868762036,E4_Acc,2024-06-28 14:02:36.843250036,11.0,63.0,7.0
1904-01-01 00:44:09.900022050,E4_Acc,2024-06-28 14:02:36.874510050,12.0,63.0,7.0
1904-01-01 00:44:09.931272050,E4_Acc,2024-06-28 14:02:36.905760050,12.0,63.0,7.0
1904-01-01 00:44:09.962522050,E4_Acc,2024-06-28 14:02:36.937010050,12.0,63.0,7.0
1904-01-01 00:44:09.993772050,E4_Acc,2024-06-28 14:02:36.968260050,12.0,63.0,7.0
1904-01-01 00:44:10.025022050,E4_Acc,2024-06-28 14:02:36.999510050,12.0,63.0,7.0
1904-01-01 00:44:10.056272050,E4_Acc,2024-06-28 14:02:37.030760050,12.0,63.0,7.0
1904-01-01 00:44:10.087532063,E4_Acc,2024-06-28 14:02:37.062020063,11.0,63.0,7.0
1904-01-01 00:44:10.118782063,E4_Acc,2024-06-28 14:02:37.093270063,11.0,63.0,7.0
1904-01-01 00:44:10.150032063,E4_Acc,2024-06-28 14:02:37.124520063,11.0,63.0,8.0
1904-01-01 00:44:10.181282063,E4_Acc,2024-06-28 14:02:37.155770063,11.0,63.0,7.0
1904-01-01 00:44:10.212532063,E4_Acc,2024-06-28 14:02:37.187020063,11.0,63.0,7.0
1904-01-01 00:44:10.243782063,E4_Acc,2024-06-28 14:02:37.218270063,12.0,63.0,7.0
1904-01-01 00:44:10.275032063,E4_Acc,2024-06-28 14:02:37.249520063,12.0,63.0,7.0
1904-01-01 00:44:10.306292077,E4_Acc,2024-06-28 14:02:37.280780077,11.0,63.0,7.0
1904-01-01 00:44:10.337542077,E4_Acc,2024-06-28 14:02:37.312030077,11.0,62.0,7.0
1904-01-01 00:44:10.368792077,E4_Acc,2024-06-28 14:02:37.343280077,11.0,63.0,7.0
1904-01-01 00:44:10.400042077,E4_Acc,2024-06-28 14:02:37.374530077,12.0,63.0,7.0
1904-01-01 00:44:10.431292077,E4_Acc,2024-06-28 14:02:37.405780077,12.0,63.0,7.0
1904-01-01 00:44:10.462542077,E4_Acc,2024-06-28 14:02:37.437030077,11.0,63.0,7.0
1904-01-01 00:44:10.493792077,E4_Acc,2024-06-28 14:02:37.468280077,11.0,63.0,7.0
1904-01-01 00:44:10.525052091,E4_Acc,2024-06-28 14:02:37.499540091,11.0,63.0,8.0
1904-01-01 00:44:10.556302090,E4_Acc,2024-06-28 14:02:37.530790090,11.0,63.0,8.0
1904-01-01 00:44:10.587552091,E4_Acc,2024-06-28 14:02:37.562040091,11.0,63.0,8.0
1904-01-01 00:44:10.618802091,E4_Acc,2024-06-28 14:02:37.593290091,11.0,63.0,8.0
1904-01-01 00:44:10.650052091,E4_Acc,2024-06-28 14:02:37.624540091,11.0,63.0,7.0
1904-01-01 00:44:10.681302091,E4_Acc,2024-06-28 14:02:37.655790091,11.0,63.0,7.0
1904-01-01 00:44:10.712552091,E4_Acc,2024-06-28 14:02:37.687040091,12.0,63.0,7.0
1904-01-01 00:44:10.743812104,E4_Acc,2024-06-28 14:02:37.718300104,12.0,63.0,7.0
1904-01-01 00:44:10.775062104,E4_Acc,2024-06-28 14:02:37.749550104,12.0,63.0,7.0
1904-01-01 00:44:10.806312104,E4_Acc,2024-06-28 14:02:37.780800104,12.0,63.0,7.0
1904-01-01 00:44:10.837562104,E4_Acc,2024-06-28 14:02:37.812050104,12.0,63.0,7.0
1904-01-01 00:44:10.868812104,E4_Acc,2024-06-28 14:02:37.843300104,12.0,63.0,7.0
1904-01-01 00:44:10.900062104,E4_Acc,2024-06-28 14:02:37.874550104,12.0,63.0,7.0
1904-01-01 00:44:10.931312104,E4_Acc,2024-06-28 14:02:37.905800104,12.0,63.0,7.0
1904-01-01 00:44:10.962572118,E4_Acc,2024-06-28 14:02:37.937060118,12.0,63.0,7.0
1904-01-01 00:44:10.993822118,E4_Acc,2024-06-28 14:02:37.968310118,11.0,63.0,7.0
1904-01-01 00:44:11.025072118,E4_Acc,2024-06-28 14:02:37.999560118,12.0,63.0,7.0
1904-01-01 00:44:11.056322118,E4_Acc,2024-06-28 14:02:38.030810118,12.0,63.0,7.0
1904-01-01 00:44:11.087572118,E4_Acc,2024-06-28 14:02:38.062060118,12.0,63.0,8.0
1904-01-01 00:44:11.118822118,E4_Acc,2024-06-28 14:02:38.093310118,12.0,63.0,8.0
1904-01-01 00:44:11.150072118,E4_Acc,2024-06-28 14:02:38.124560118,12.0,63.0,7.0
1904-01-01 00:44:11.181331893,E4_Acc,2024-06-28 14:02:38.155819893,12.0,62.0,8.0
1904-01-01 00:44:11.212581893,E4_Acc,2024-06-28 14:02:38.187069893,12.0,62.0,7.0
1904-01-01 00:44:11.243831893,E4_Acc,2024-06-28 14:02:38.218319893,12.0,63.0,7.0
1904-01-01 00:44:11.275081893,E4_Acc,2024-06-28 14:02:38.249569893,12.0,63.0,7.0
1904-01-01 00:44:11.306331893,E4_Acc,2024-06-28 14:02:38.280819893,12.0,63.0,8.0
1904-01-01 00:44:11.337581893,E4_Acc,2024-06-28 14:02:38.312069893,11.0,63.0,8.0
1904-01-01 00:44:11.368831893,E4_Acc,2024-06-28 14:02:38.343319893,12.0,62.0,7.0
1904-01-01 00:44:11.400091906,E4_Acc,2024-06-28 14:02:38.374579906,12.0,63.0,7.0
1904-01-01 00:44:11.431341906,E4_Acc,2024-06-28 14:02:38.405829906,12.0,63.0,7.0
1904-01-01 00:44:11.462591906,E4_Acc,2024-06-28 14:02:38.437079906,12.0,63.0,7.0
1904-01-01 00:44:11.493841906,E4_Acc,2024-06-28 14:02:38.468329906,12.0,62.0,8.0
1904-01-01 00:44:11.525091906,E4_Acc,2024-06-28 14:02:38.499579906,12.0,63.0,8.0
1904-01-01 00:44:11.556341906,E4_Acc,2024-06-28 14:02:38.530829906,12.0,63.0,8.0
1904-01-01 00:44:11.587591906,E4_Acc,2024-06-28 14:02:38.562079906,12.0,63.0,8.0
1904-01-01 00:44:11.618851920,E4_Acc,2024-06-28 14:02:38.593339920,12.0,63.0,8.0
1904-01-01 00:44:11.650101920,E4_Acc,2024-06-28 14:02:38.624589920,12.0,63.0,8.0
1904-01-01 00:44:11.681351920,E4_Acc,2024-06-28 14:02:38.655839920,12.0,63.0,7.0
1904-01-01 00:44:11.712601920,E4_Acc,2024-06-28 14:02:38.687089920,12.0,63.0,7.0
1904-01-01 00:44:11.743851920,E4_Acc,2024-06-28 14:02:38.718339920,12.0,63.0,7.0
1904-01-01 00:44:11.775101920,E4_Acc,2024-06-28 14:02:38.749589920,12.0,63.0,8.0
1904-01-01 00:44:11.806351920,E4_Acc,2024-06-28 14:02:38.780839920,12.0,63.0,7.0
1904-01-01 00:44:11.837611934,E4_Acc,2024-06-28 14:02:38.812099934,12.0,63.0,8.0
1904-01-01 00:44:11.868861934,E4_Acc,2024-06-28 14:02:38.843349934,12.0,63.0,8.0
1904-01-01 00:44:11.900111934,E4_Acc,2024-06-28 14:02:38.874599934,12.0,63.0,8.0
1904-01-01 00:44:11.931361934,E4_Acc,2024-06-28 14:02:38.905849934,12.0,63.0,8.0
1904-01-01 00:44:11.962611934,E4_Acc,2024-06-28 14:02:38.937099934,12.0,63.0,8.0
1904-01-01 00:44:11.993861934,E4_Acc,2024-06-28 14:02:38.968349934,11.0,63.0,8.0
1904-01-01 00:44:12.025111934,E4_Acc,2024-06-28 14:02:38.999599934,12.0,63.0,8.0
1904-01-01 00:44:12.056371947,E4_Acc,2024-06-28 14:02:39.030859947,11.0,62.0,8.0
1904-01-01 00:44:12.087621947,E4_Acc,2024-06-28 14:02:39.062109947,12.0,62.0,8.0
1904-01-01 00:44:12.118871947,E4_Acc,2024-06-28 14:02:39.093359947,12.0,63.0,8.0
1904-01-01 00:44:12.150121947,E4_Acc,2024-06-28 14:02:39.124609947,12.0,63.0,7.0
1904-01-01 00:44:12.181371947,E4_Acc,2024-06-28 14:02:39.155859947,12.0,63.0,7.0
1904-01-01 00:44:12.212621947,E4_Acc,2024-06-28 14:02:39.187109947,12.0,63.0,7.0
1904-01-01 00:44:12.243871947,E4_Acc,2024-06-28 14:02:39.218359947,12.0,62.0,7.0
1904-01-01 00:44:12.275131961,E4_Acc,2024-06-28 14:02:39.249619961,12.0,62.0,7.0
1904-01-01 00:44:12.306381961,E4_Acc,2024-06-28 14:02:39.280869961,12.0,62.0,7.0
1904-01-01 00:44:12.337631961,E4_Acc,2024-06-28 14:02:39.312119961,12.0,63.0,7.0
1904-01-01 00:44:12.368881961,E4_Acc,2024-06-28 14:02:39.343369961,12.0,63.0,7.0
1904-01-01 00:44:12.400131961,E4_Acc,2024-06-28 14:02:39.374619961,12.0,63.0,7.0
1904-01-01 00:44:12.431381961,E4_Acc,2024-06-28 14:02:39.405869961,12.0,63.0,7.0
1904-01-01 00:44:12.462631961,E4_Acc,2024-06-28 14:02:39.437119961,12.0,63.0,7.0
1904-01-01 00:44:12.493891974,E4_Acc,2024-06-28 14:02:39.468379974,11.0,63.0,8.0
1904-01-01 00:44:12.525141974,E4_Acc,2024-06-28 14:02:39.499629974,11.0,63.0,8.0
1904-01-01 00:44:12.556391974,E4_Acc,2024-06-28 14:02:39.530879974,11.0,63.0,8.0
1904-01-01 00:44:12.587641974,E4_Acc,2024-06-28 14:02:39.562129974,11.0,63.0,8.0
1904-01-01 00:44:12.618891974,E4_Acc,2024-06-28 14:02:39.593379974,11.0,63.0,8.0
1904-01-01 00:44:12.650141974,E4_Acc,2024-06-28 14:02:39.624629974,12.0,63.0,7.0
1904-01-01 00:44:12.681401988,E4_Acc,2024-06-28 14:02:39.655889988,12.0,63.0,7.0
1904-01-01 00:44:12.712651988,E4_Acc,2024-06-28 14:02:39.687139988,12.0,63.0,7.0
1904-01-01 00:44:12.743901988,E4_Acc,2024-06-28 14:02:39.718389988,12.0,63.0,7.0
1904-01-01 00:44:12.775151988,E4_Acc,2024-06-28 14:02:39.749639988,12.0,62.0,7.0
1904-01-01 00:44:12.806401988,E4_Acc,2024-06-28 14:02:39.780889988,12.0,63.0,7.0
1904-01-01 00:44:12.837651988,E4_Acc,2024-06-28 14:02:39.812139988,12.0,63.0,7.0
1904-01-01 00:44:12.868901988,E4_Acc,2024-06-28 14:02:39.843389988,12.0,63.0,7.0
1904-01-01 00:44:12.900162002,E4_Acc,2024-06-28 14:02:39.874650002,11.0,63.0,7.0
1904-01-01 00:44:12.931412002,E4_Acc,2024-06-28 14:02:39.905900002,12.0,63.0,7.0
1904-01-01 00:44:12.962662002,E4_Acc,2024-06-28 14:02:39.937150002,11.0,63.0,8.0
1904-01-01 00:44:12.993912002,E4_Acc,2024-06-28 14:02:39.968400002,11.0,63.0,8.0
1904-01-01 00:44:13.025162002,E4_Acc,2024-06-28 14:02:39.999650002,11.0,63.0,8.0
1904-01-01 00:44:13.056412002,E4_Acc,2024-06-28 14:02:40.030900002,11.0,63.0,7.0
1904-01-01 00:44:13.087662002,E4_Acc,2024-06-28 14:02:40.062150002,11.0,63.0,7.0
1904-01-01 00:44:13.118922015,E4_Acc,2024-06-28 14:02:40.093410015,12.0,63.0,7.0
1904-01-01 00:44:13.150172015,E4_Acc,2024-06-28 14:02:40.124660015,12.0,63.0,7.0
1904-01-01 00:44:13.181422015,E4_Acc,2024-06-28 14:02:40.155910015,12.0,63.0,7.0
1904-01-01 00:44:13.212672015,E4_Acc,2024-06-28 14:02:40.187160015,12.0,63.0,7.0
1904-01-01 00:44:13.243922015,E4_Acc,2024-06-28 14:02:40.218410015,12.0,63.0,7.0
1904-01-01 00:44:13.275172015,E4_Acc,2024-06-28 14:02:40.249660015,12.0,63.0,7.0
1904-01-01 00:44:13.306422015,E4_Acc,2024-06-28 14:02:40.280910015,12.0,63.0,7.0
1904-01-01 00:44:13.337682029,E4_Acc,2024-06-28 14:02:40.312170029,12.0,63.0,7.0
1904-01-01 00:44:13.368932029,E4_Acc,2024-06-28 14:02:40.343420029,12.0,63.0,8.0
1904-01-01 00:44:13.400182029,E4_Acc,2024-06-28 14:02:40.374670029,12.0,63.0,8.0
1904-01-01 00:44:13.431432029,E4_Acc,2024-06-28 14:02:40.405920029,11.0,63.0,8.0
1904-01-01 00:44:13.462682029,E4_Acc,2024-06-28 14:02:40.437170029,11.0,63.0,8.0
1904-01-01 00:44:13.493932029,E4_Acc,2024-06-28 14:02:40.468420029,11.0,63.0,8.0
1904-01-01 00:44:13.525182029,E4_Acc,2024-06-28 14:02:40.499670029,11.0,63.0,8.0
1904-01-01 00:44:13.556442042,E4_Acc,2024-06-28 14:02:40.530930042,11.0,63.0,7.0
1904-01-01 00:44:13.587692042,E4_Acc,2024-06-28 14:02:40.562180042,12.0,63.0,7.0
1904-01-01 00:44:13.618942042,E4_Acc,2024-06-28 14:02:40.593430042,12.0,63.0,7.0
1904-01-01 00:44:13.650192042,E4_Acc,2024-06-28 14:02:40.624680042,12.0,63.0,7.0
1904-01-01 00:44:13.681442042,E4_Acc,2024-06-28 14:02:40.655930042,12.0,63.0,7.0
1904-01-01 00:44:13.712692042,E4_Acc,2024-06-28 14:02:40.687180042,12.0,63.0,7.0
1904-01-01 00:44:13.743942042,E4_Acc,2024-06-28 14:02:40.718430042,12.0,63.0,7.0
1904-01-01 00:44:13.775202056,E4_Acc,2024-06-28 14:02:40.749690056,12.0,63.0,7.0
1904-01-01 00:44:13.806452056,E4_Acc,2024-06-28 14:02:40.780940056,12.0,63.0,7.0
1904-01-01 00:44:13.837702056,E4_Acc,2024-06-28 14:02:40.812190056,12.0,63.0,8.0
1904-01-01 00:44:13.868952056,E4_Acc,2024-06-28 14:02:40.843440056,12.0,63.0,7.0
1904-01-01 00:44:13.900202056,E4_Acc,2024-06-28 14:02:40.874690056,12.0,63.0,7.0
1904-01-01 00:44:13.931452056,E4_Acc,2024-06-28 14:02:40.905940056,12.0,63.0,7.0
1904-01-01 00:44:13.962702056,E4_Acc,2024-06-28 14:02:40.937190056,12.0,63.0,8.0
1904-01-01 00:44:13.993962069,E4_Acc,2024-06-28 14:02:40.968450069,11.0,63.0,8.0
1904-01-01 00:44:14.025212069,E4_Acc,2024-06-28 14:02:40.999700069,12.0,63.0,8.0
1904-01-01 00:44:14.056462069,E4_Acc,2024-06-28 14:02:41.030950069,12.0,63.0,8.0
1904-01-01 00:44:14.087712069,E4_Acc,2024-06-28 14:02:41.062200069,12.0,63.0,8.0
1904-01-01 00:44:14.118962069,E4_Acc,2024-06-28 14:02:41.093450069,12.0,63.0,8.0
1904-01-01 00:44:14.150212069,E4_Acc,2024-06-28 14:02:41.124700069,12.0,63.0,8.0
1904-01-01 00:44:14.181462069,E4_Acc,2024-06-28 14:02:41.155950069,12.0,62.0,8.0
1904-01-01 00:44:14.212722083,E4_Acc,2024-06-28 14:02:41.187210083,12.0,63.0,8.0
1904-01-01 00:44:14.243972083,E4_Acc,2024-06-28 14:02:41.218460083,12.0,63.0,7.0
1904-01-01 00:44:14.275222083,E4_Acc,2024-06-28 14:02:41.249710083,12.0,63.0,7.0
1904-01-01 00:44:14.306472083,E4_Acc,2024-06-28 14:02:41.280960083,12.0,63.0,8.0
1904-01-01 00:44:14.337722083,E4_Acc,2024-06-28 14:02:41.312210083,12.0,63.0,8.0
1904-01-01 00:44:14.368972083,E4_Acc,2024-06-28 14:02:41.343460083,12.0,63.0,8.0
1904-01-01 00:44:14.400222083,E4_Acc,2024-06-28 14:02:41.374710083,12.0,63.0,8.0
1904-01-01 00:44:14.431482097,E4_Acc,2024-06-28 14:02:41.405970097,12.0,63.0,8.0
1904-01-01 00:44:14.462732097,E4_Acc,2024-06-28 14:02:41.437220097,12.0,63.0,8.0
1904-01-01 00:44:14.493982097,E4_Acc,2024-06-28 14:02:41.468470097,12.0,63.0,8.0
1904-01-01 00:44:14.525232097,E4_Acc,2024-06-28 14:02:41.499720097,12.0,63.0,8.0
1904-01-01 00:44:14.556482097,E4_Acc,2024-06-28 14:02:41.530970097,12.0,62.0,8.0
1904-01-01 00:44:14.587732097,E4_Acc,2024-06-28 14:02:41.562220097,12.0,63.0,7.0
1904-01-01 00:44:14.618982097,E4_Acc,2024-06-28 14:02:41.593470097,12.0,63.0,7.0
1904-01-01 00:44:14.650242110,E4_Acc,2024-06-28 14:02:41.624730110,12.0,63.0,7.0
1904-01-01 00:44:14.681492110,E4_Acc,2024-06-28 14:02:41.655980110,12.0,63.0,7.0
1904-01-01 00:44:14.712742110,E4_Acc,2024-06-28 14:02:41.687230110,12.0,63.0,8.0
1904-01-01 00:44:14.743992110,E4_Acc,2024-06-28 14:02:41.718480110,12.0,63.0,8.0
1904-01-01 00:44:14.775242110,E4_Acc,2024-06-28 14:02:41.749730110,12.0,63.0,8.0
1904-01-01 00:44:14.806492110,E4_Acc,2024-06-28 14:02:41.780980110,12.0,63.0,8.0
1904-01-01 00:44:14.837742110,E4_Acc,2024-06-28 14:02:41.812230110,11.0,63.0,8.0
1904-01-01 00:44:14.869001885,E4_Acc,2024-06-28 14:02:41.843489885,12.0,63.0,8.0
1904-01-01 00:44:14.900251885,E4_Acc,2024-06-28 14:02:41.874739885,12.0,63.0,8.0
1904-01-01 00:44:14.931501885,E4_Acc,2024-06-28 14:02:41.905989885,12.0,63.0,7.0
1904-01-01 00:44:14.962751885,E4_Acc,2024-06-28 14:02:41.937239885,12.0,63.0,7.0
1904-01-01 00:44:14.994001885,E4_Acc,2024-06-28 14:02:41.968489885,12.0,63.0,7.0
1904-01-01 00:44:15.025251885,E4_Acc,2024-06-28 14:02:41.999739885,12.0,63.0,8.0
1904-01-01 00:44:15.056511899,E4_Acc,2024-06-28 14:02:42.030999899,12.0,63.0,8.0
1904-01-01 00:44:15.087761899,E4_Acc,2024-06-28 14:02:42.062249899,12.0,63.0,8.0
1904-01-01 00:44:15.119011899,E4_Acc,2024-06-28 14:02:42.093499899,12.0,63.0,8.0
1904-01-01 00:44:15.150261899,E4_Acc,2024-06-28 14:02:42.124749899,12.0,63.0,8.0
1904-01-01 00:44:15.181511899,E4_Acc,2024-06-28 14:02:42.155999899,12.0,63.0,8.0
1904-01-01 00:44:15.212761899,E4_Acc,2024-06-28 14:02:42.187249899,12.0,63.0,8.0
1904-01-01 00:44:15.244011899,E4_Acc,2024-06-28 14:02:42.218499899,12.0,63.0,8.0
1904-01-01 00:44:15.275271912,E4_Acc,2024-06-28 14:02:42.249759912,12.0,63.0,8.0
1904-01-01 00:44:15.306521912,E4_Acc,2024-06-28 14:02:42.281009912,12.0,63.0,8.0
1904-01-01 00:44:15.337771912,E4_Acc,2024-06-28 14:02:42.312259912,12.0,63.0,8.0
1904-01-01 00:44:15.369021912,E4_Acc,2024-06-28 14:02:42.343509912,11.0,63.0,8.0
1904-01-01 00:44:15.400271912,E4_Acc,2024-06-28 14:02:42.374759912,11.0,63.0,8.0
1904-01-01 00:44:15.431521912,E4_Acc,2024-06-28 14:02:42.406009912,11.0,63.0,8.0
1904-01-01 00:44:15.462771912,E4_Acc,2024-06-28 14:02:42.437259912,12.0,63.0,8.0
1904-01-01 00:44:15.494031926,E4_Acc,2024-06-28 14:02:42.468519926,12.0,63.0,8.0
1904-01-01 00:44:15.525281926,E4_Acc,2024-06-28 14:02:42.499769926,12.0,62.0,8.0
1904-01-01 00:44:15.556531926,E4_Acc,2024-06-28 14:02:42.531019926,12.0,63.0,8.0
1904-01-01 00:44:15.587781926,E4_Acc,2024-06-28 14:02:42.562269926,12.0,63.0,8.0
1904-01-01 00:44:15.619031926,E4_Acc,2024-06-28 14:02:42.593519926,12.0,63.0,8.0
1904-01-01 00:44:15.650281926,E4_Acc,2024-06-28 14:02:42.624769926,12.0,63.0,7.0
1904-01-01 00:44:15.681531926,E4_Acc,2024-06-28 14:02:42.656019926,12.0,63.0,8.0
1904-01-01 00:44:15.712791940,E4_Acc,2024-06-28 14:02:42.687279940,12.0,62.0,8.0
1904-01-01 00:44:15.744041940,E4_Acc,2024-06-28 14:02:42.718529940,12.0,62.0,8.0
1904-01-01 00:44:15.775291940,E4_Acc,2024-06-28 14:02:42.749779940,12.0,63.0,8.0
1904-01-01 00:44:15.806541940,E4_Acc,2024-06-28 14:02:42.781029940,12.0,63.0,8.0
1904-01-01 00:44:15.837791940,E4_Acc,2024-06-28 14:02:42.812279940,12.0,63.0,8.0
1904-01-01 00:44:15.869041940,E4_Acc,2024-06-28 14:02:42.843529940,11.0,63.0,8.0
1904-01-01 00:44:15.900291940,E4_Acc,2024-06-28 14:02:42.874779940,11.0,63.0,8.0
1904-01-01 00:44:15.931551953,E4_Acc,2024-06-28 14:02:42.906039953,11.0,62.0,8.0
1904-01-01 00:44:15.962801953,E4_Acc,2024-06-28 14:02:42.937289953,12.0,63.0,8.0
1904-01-01 00:44:15.994051953,E4_Acc,2024-06-28 14:02:42.968539953,12.0,63.0,7.0
1904-01-01 00:44:16.025301953,E4_Acc,2024-06-28 14:02:42.999789953,11.0,63.0,7.0
1904-01-01 00:44:16.056551953,E4_Acc,2024-06-28 14:02:43.031039953,11.0,63.0,8.0
1904-01-01 00:44:16.087801953,E4_Acc,2024-06-28 14:02:43.062289953,11.0,63.0,8.0
1904-01-01 00:44:16.119051953,E4_Acc,2024-06-28 14:02:43.093539953,11.0,63.0,8.0
1904-01-01 00:44:16.150311967,E4_Acc,2024-06-28 14:02:43.124799967,11.0,63.0,8.0
1904-01-01 00:44:16.181561967,E4_Acc,2024-06-28 14:02:43.156049967,11.0,63.0,8.0
1904-01-01 00:44:16.212811967,E4_Acc,2024-06-28 14:02:43.187299967,12.0,63.0,8.0
1904-01-01 00:44:16.244061967,E4_Acc,2024-06-28 14:02:43.218549967,12.0,63.0,8.0
1904-01-01 00:44:16.275311967,E4_Acc,2024-06-28 14:02:43.249799967,12.0,63.0,8.0
1904-01-01 00:44:16.306561967,E4_Acc,2024-06-28 14:02:43.281049967,12.0,63.0,8.0
1904-01-01 00:44:16.337811967,E4_Acc,2024-06-28 14:02:43.312299967,12.0,63.0,8.0
1904-01-01 00:44:16.369071980,E4_Acc,2024-06-28 14:02:43.343559980,12.0,63.0,7.0
1904-01-01 00:44:16.400321980,E4_Acc,2024-06-28 14:02:43.374809980,12.0,63.0,7.0
1904-01-01 00:44:16.431571980,E4_Acc,2024-06-28 14:02:43.406059980,12.0,63.0,8.0
1904-01-01 00:44:16.462821980,E4_Acc,2024-06-28 14:02:43.437309980,12.0,63.0,8.0
1904-01-01 00:44:16.494071980,E4_Acc,2024-06-28 14:02:43.468559980,12.0,63.0,7.0
1904-01-01 00:44:16.525321980,E4_Acc,2024-06-28 14:02:43.499809980,12.0,63.0,7.0
1904-01-01 00:44:16.556571980,E4_Acc,2024-06-28 14:02:43.531059980,12.0,63.0,7.0
1904-01-01 00:44:16.587831994,E4_Acc,2024-06-28 14:02:43.562319994,12.0,63.0,8.0
1904-01-01 00:44:16.619081994,E4_Acc,2024-06-28 14:02:43.593569994,12.0,63.0,8.0
1904-01-01 00:44:16.650331994,E4_Acc,2024-06-28 14:02:43.624819994,12.0,63.0,8.0
1904-01-01 00:44:16.681581994,E4_Acc,2024-06-28 14:02:43.656069994,12.0,63.0,8.0
1904-01-01 00:44:16.712831994,E4_Acc,2024-06-28 14:02:43.687319994,12.0,63.0,8.0
1904-01-01 00:44:16.744081994,E4_Acc,2024-06-28 14:02:43.718569994,12.0,63.0,7.0
1904-01-01 00:44:16.775331994,E4_Acc,2024-06-28 14:02:43.749819994,12.0,63.0,8.0
1904-01-01 00:44:16.806592008,E4_Acc,2024-06-28 14:02:43.781080008,12.0,63.0,8.0
1904-01-01 00:44:16.837842008,E4_Acc,2024-06-28 14:02:43.812330008,12.0,62.0,7.0
1904-01-01 00:44:16.869092008,E4_Acc,2024-06-28 14:02:43.843580008,12.0,63.0,7.0
1904-01-01 00:44:16.900342008,E4_Acc,2024-06-28 14:02:43.874830008,12.0,63.0,7.0
1904-01-01 00:44:16.931592008,E4_Acc,2024-06-28 14:02:43.906080008,12.0,63.0,7.0
1904-01-01 00:44:16.962842008,E4_Acc,2024-06-28 14:02:43.937330008,12.0,63.0,7.0
1904-01-01 00:44:16.994092008,E4_Acc,2024-06-28 14:02:43.968580008,12.0,63.0,7.0
1904-01-01 00:44:17.025352021,E4_Acc,2024-06-28 14:02:43.999840021,12.0,63.0,7.0
1904-01-01 00:44:17.056602021,E4_Acc,2024-06-28 14:02:44.031090021,12.0,63.0,7.0
1904-01-01 00:44:17.087852021,E4_Acc,2024-06-28 14:02:44.062340021,12.0,63.0,7.0
1904-01-01 00:44:17.119102021,E4_Acc,2024-06-28 14:02:44.093590021,12.0,63.0,7.0
1904-01-01 00:44:17.150352021,E4_Acc,2024-06-28 14:02:44.124840021,12.0,63.0,7.0
1904-01-01 00:44:17.181602021,E4_Acc,2024-06-28 14:02:44.156090021,12.0,63.0,7.0
1904-01-01 00:44:17.212852021,E4_Acc,2024-06-28 14:02:44.187340021,12.0,63.0,7.0
1904-01-01 00:44:17.244112035,E4_Acc,2024-06-28 14:02:44.218600035,12.0,63.0,7.0
1904-01-01 00:44:17.275362035,E4_Acc,2024-06-28 14:02:44.249850035,12.0,63.0,7.0
1904-01-01 00:44:17.306612035,E4_Acc,2024-06-28 14:02:44.281100035,12.0,63.0,8.0
1904-01-01 00:44:17.337862035,E4_Acc,2024-06-28 14:02:44.312350035,12.0,63.0,7.0
1904-01-01 00:44:17.369112035,E4_Acc,2024-06-28 14:02:44.343600035,12.0,63.0,7.0
1904-01-01 00:44:17.400362035,E4_Acc,2024-06-28 14:02:44.374850035,12.0,63.0,7.0
1904-01-01 00:44:17.431622048,E4_Acc,2024-06-28 14:02:44.406110048,12.0,63.0,7.0
1904-01-01 00:44:17.462872048,E4_Acc,2024-06-28 14:02:44.437360048,12.0,63.0,7.0
1904-01-01 00:44:17.494122048,E4_Acc,2024-06-28 14:02:44.468610048,12.0,62.0,7.0
1904-01-01 00:44:17.525372048,E4_Acc,2024-06-28 14:02:44.499860048,12.0,63.0,7.0
1904-01-01 00:44:17.556622047,E4_Acc,2024-06-28 14:02:44.531110047,12.0,63.0,7.0
1904-01-01 00:44:17.587872048,E4_Acc,2024-06-28 14:02:44.562360048,12.0,63.0,7.0
1904-01-01 00:44:17.619122048,E4_Acc,2024-06-28 14:02:44.593610048,12.0,63.0,7.0
1904-01-01 00:44:17.650382062,E4_Acc,2024-06-28 14:02:44.624870062,12.0,63.0,8.0
1904-01-01 00:44:17.681632062,E4_Acc,2024-06-28 14:02:44.656120062,12.0,63.0,7.0
1904-01-01 00:44:17.712882062,E4_Acc,2024-06-28 14:02:44.687370062,12.0,63.0,7.0
1904-01-01 00:44:17.744132062,E4_Acc,2024-06-28 14:02:44.718620062,12.0,63.0,7.0
1904-01-01 00:44:17.775382062,E4_Acc,2024-06-28 14:02:44.749870062,12.0,63.0,7.0
1904-01-01 00:44:17.806632062,E4_Acc,2024-06-28 14:02:44.781120062,12.0,63.0,7.0
1904-01-01 00:44:17.837882062,E4_Acc,2024-06-28 14:02:44.812370062,12.0,63.0,7.0
1904-01-01 00:44:17.869142075,E4_Acc,2024-06-28 14:02:44.843630075,12.0,63.0,7.0
