Seconds,Stream,E4_Seconds,AccX,AccY,AccZ
1904-01-01 00:33:16.992000034,E4_Acc,2024-06-27 06:49:23.803220034,-17.0,-63.0,1.0
1904-01-01 00:33:17.023250034,E4_Acc,2024-06-27 06:49:23.834470034,-17.0,-63.0,1.0
1904-01-01 00:33:17.054500034,E4_Acc,2024-06-27 06:49:23.865720034,-17.0,-62.0,0.0
1904-01-01 00:33:17.085750034,E4_Acc,2024-06-27 06:49:23.896970034,-17.0,-62.0,0.0
1904-01-01 00:33:17.117010047,E4_Acc,2024-06-27 06:49:23.928230047,-17.0,-62.0,0.0
1904-01-01 00:33:17.148260047,E4_Acc,2024-06-27 06:49:23.959480047,-17.0,-62.0,1.0
1904-01-01 00:33:17.179510047,E4_Acc,2024-06-27 06:49:23.990730047,-17.0,-62.0,1.0
1904-01-01 00:33:17.210760047,E4_Acc,2024-06-27 06:49:24.021980047,-17.0,-62.0,1.0
1904-01-01 00:33:17.242010047,E4_Acc,2024-06-27 06:49:24.053230047,-17.0,-63.0,0.0
1904-01-01 00:33:17.273260047,E4_Acc,2024-06-27 06:49:24.084480047,-17.0,-63.0,0.0
1904-01-01 00:33:17.304510047,E4_Acc,2024-06-27 06:49:24.115730047,-17.0,-62.0,0.0
1904-01-01 00:33:17.335770061,E4_Acc,2024-06-27 06:49:24.146990061,-17.0,-62.0,1.0
1904-01-01 00:33:17.367020061,E4_Acc,2024-06-27 06:49:24.178240061,-16.0,-62.0,1.0
1904-01-01 00:33:17.398270061,E4_Acc,2024-06-27 06:49:24.209490061,-17.0,-63.0,1.0
1904-01-01 00:33:17.429520061,E4_Acc,2024-06-27 06:49:24.240740061,-17.0,-63.0,0.0
1904-01-01 00:33:17.460770061,E4_Acc,2024-06-27 06:49:24.271990061,-17.0,-63.0,0.0
1904-01-01 00:33:17.492020061,E4_Acc,2024-06-27 06:49:24.303240061,-16.0,-62.0,1.0
1904-01-01 00:33:17.523270061,E4_Acc,2024-06-27 06:49:24.334490061,-16.0,-62.0,1.0
1904-01-01 00:33:17.554530074,E4_Acc,2024-06-27 06:49:24.365750074,-17.0,-62.0,1.0
1904-01-01 00:33:17.585780074,E4_Acc,2024-06-27 06:49:24.397000074,-17.0,-63.0,1.0
1904-01-01 00:33:17.617030074,E4_Acc,2024-06-27 06:49:24.428250074,-17.0,-63.0,1.0
1904-01-01 00:33:17.648280074,E4_Acc,2024-06-27 06:49:24.459500074,-16.0,-63.0,1.0
1904-01-01 00:33:17.679530074,E4_Acc,2024-06-27 06:49:24.490750074,-17.0,-62.0,1.0
1904-01-01 00:33:17.710780074,E4_Acc,2024-06-27 06:49:24.522000074,-17.0,-63.0,0.0
1904-01-01 00:33:17.742030074,E4_Acc,2024-06-27 06:49:24.553250074,-17.0,-62.0,1.0
1904-01-01 00:33:17.773290088,E4_Acc,2024-06-27 06:49:24.584510088,-16.0,-62.0,1.0
1904-01-01 00:33:17.804540088,E4_Acc,2024-06-27 06:49:24.615760088,-17.0,-63.0,0.0
1904-01-01 00:33:17.835790088,E4_Acc,2024-06-27 06:49:24.647010088,-17.0,-63.0,0.0
1904-01-01 00:33:17.867040088,E4_Acc,2024-06-27 06:49:24.678260088,-17.0,-62.0,0.0
1904-01-01 00:33:17.898290088,E4_Acc,2024-06-27 06:49:24.709510088,-17.0,-62.0,0.0
1904-01-01 00:33:17.929540088,E4_Acc,2024-06-27 06:49:24.740760088,-17.0,-62.0,0.0
1904-01-01 00:33:17.960790088,E4_Acc,2024-06-27 06:49:24.772010088,-17.0,-63.0,0.0
1904-01-01 00:33:17.992050102,E4_Acc,2024-06-27 06:49:24.803270102,-17.0,-63.0,1.0
1904-01-01 00:33:18.023300102,E4_Acc,2024-06-27 06:49:24.834520102,-17.0,-62.0,1.0
1904-01-01 00:33:18.054550102,E4_Acc,2024-06-27 06:49:24.865770102,-17.0,-62.0,0.0
1904-01-01 00:33:18.085800102,E4_Acc,2024-06-27 06:49:24.897020102,-17.0,-62.0,1.0
1904-01-01 00:33:18.117050102,E4_Acc,2024-06-27 06:49:24.928270102,-18.0,-62.0,1.0
1904-01-01 00:33:18.148300102,E4_Acc,2024-06-27 06:49:24.959520102,-18.0,-62.0,1.0
1904-01-01 00:33:18.179550102,E4_Acc,2024-06-27 06:49:24.990770102,-17.0,-62.0,0.0
1904-01-01 00:33:18.210810115,E4_Acc,2024-06-27 06:49:25.022030115,-16.0,-62.0,1.0
1904-01-01 00:33:18.242060115,E4_Acc,2024-06-27 06:49:25.053280115,-17.0,-62.0,0.0
1904-01-01 00:33:18.273310115,E4_Acc,2024-06-27 06:49:25.084530115,-17.0,-62.0,0.0
1904-01-01 00:33:18.304560115,E4_Acc,2024-06-27 06:49:25.115780115,-17.0,-62.0,0.0
1904-01-01 00:33:18.335810115,E4_Acc,2024-06-27 06:49:25.147030115,-17.0,-63.0,0.0
1904-01-01 00:33:18.367060115,E4_Acc,2024-06-27 06:49:25.178280115,-17.0,-62.0,1.0
1904-01-01 00:33:18.398310115,E4_Acc,2024-06-27 06:49:25.209530115,-17.0,-62.0,1.0
1904-01-01 00:33:18.429569890,E4_Acc,2024-06-27 06:49:25.240789890,-17.0,-62.0,0.0
1904-01-01 00:33:18.460819890,E4_Acc,2024-06-27 06:49:25.272039890,-16.0,-62.0,1.0
1904-01-01 00:33:18.492069890,E4_Acc,2024-06-27 06:49:25.303289890,-17.0,-63.0,1.0
1904-01-01 00:33:18.523319890,E4_Acc,2024-06-27 06:49:25.334539890,-17.0,-63.0,0.0
1904-01-01 00:33:18.554569890,E4_Acc,2024-06-27 06:49:25.365789890,-17.0,-62.0,0.0
1904-01-01 00:33:18.585819890,E4_Acc,2024-06-27 06:49:25.397039890,-16.0,-62.0,0.0
1904-01-01 00:33:18.617069890,E4_Acc,2024-06-27 06:49:25.428289890,-17.0,-62.0,0.0
1904-01-01 00:33:18.648329904,E4_Acc,2024-06-27 06:49:25.459549904,-17.0,-62.0,0.0
1904-01-01 00:33:18.679579904,E4_Acc,2024-06-27 06:49:25.490799904,-17.0,-63.0,0.0
1904-01-01 00:33:18.710829903,E4_Acc,2024-06-27 06:49:25.522049903,-17.0,-63.0,0.0
1904-01-01 00:33:18.742079904,E4_Acc,2024-06-27 06:49:25.553299904,-16.0,-62.0,1.0
1904-01-01 00:33:18.773329904,E4_Acc,2024-06-27 06:49:25.584549904,-16.0,-62.0,1.0
1904-01-01 00:33:18.804579904,E4_Acc,2024-06-27 06:49:25.615799904,-16.0,-62.0,1.0
1904-01-01 00:33:18.835829904,E4_Acc,2024-06-27 06:49:25.647049904,-17.0,-63.0,0.0
1904-01-01 00:33:18.867089917,E4_Acc,2024-06-27 06:49:25.678309917,-18.0,-63.0,0.0
1904-01-01 00:33:18.898339917,E4_Acc,2024-06-27 06:49:25.709559917,-17.0,-63.0,0.0
1904-01-01 00:33:18.929589917,E4_Acc,2024-06-27 06:49:25.740809917,-17.0,-62.0,0.0
1904-01-01 00:33:18.960839917,E4_Acc,2024-06-27 06:49:25.772059917,-17.0,-62.0,1.0
1904-01-01 00:33:18.992089917,E4_Acc,2024-06-27 06:49:25.803309917,-17.0,-62.0,1.0
1904-01-01 00:33:19.023339917,E4_Acc,2024-06-27 06:49:25.834559917,-17.0,-62.0,1.0
1904-01-01 00:33:19.054589917,E4_Acc,2024-06-27 06:49:25.865809917,-17.0,-63.0,0.0
1904-01-01 00:33:19.085849931,E4_Acc,2024-06-27 06:49:25.897069931,-17.0,-62.0,1.0
1904-01-01 00:33:19.117099931,E4_Acc,2024-06-27 06:49:25.928319931,-17.0,-62.0,0.0
1904-01-01 00:33:19.148349931,E4_Acc,2024-06-27 06:49:25.959569931,-17.0,-63.0,0.0
1904-01-01 00:33:19.179599931,E4_Acc,2024-06-27 06:49:25.990819931,-17.0,-62.0,0.0
1904-01-01 00:33:19.210849931,E4_Acc,2024-06-27 06:49:26.022069931,-16.0,-63.0,0.0
1904-01-01 00:33:19.242099931,E4_Acc,2024-06-27 06:49:26.053319931,-16.0,-62.0,0.0
1904-01-01 00:33:19.273349931,E4_Acc,2024-06-27 06:49:26.084569931,-16.0,-63.0,0.0
1904-01-01 00:33:19.304609945,E4_Acc,2024-06-27 06:49:26.115829945,-16.0,-62.0,0.0
1904-01-01 00:33:19.335859945,E4_Acc,2024-06-27 06:49:26.147079945,-16.0,-62.0,1.0
1904-01-01 00:33:19.367109945,E4_Acc,2024-06-27 06:49:26.178329945,-17.0,-63.0,0.0
1904-01-01 00:33:19.398359945,E4_Acc,2024-06-27 06:49:26.209579945,-16.0,-63.0,1.0
1904-01-01 00:33:19.429609945,E4_Acc,2024-06-27 06:49:26.240829945,-17.0,-63.0,0.0
1904-01-01 00:33:19.460859945,E4_Acc,2024-06-27 06:49:26.272079945,-16.0,-63.0,1.0
1904-01-01 00:33:19.492109945,E4_Acc,2024-06-27 06:49:26.303329945,-16.0,-62.0,1.0
1904-01-01 00:33:19.523369958,E4_Acc,2024-06-27 06:49:26.334589958,-16.0,-63.0,1.0
1904-01-01 00:33:19.554619958,E4_Acc,2024-06-27 06:49:26.365839958,-16.0,-63.0,1.0
1904-01-01 00:33:19.585869958,E4_Acc,2024-06-27 06:49:26.397089958,-17.0,-63.0,1.0
1904-01-01 00:33:19.617119958,E4_Acc,2024-06-27 06:49:26.428339958,-16.0,-62.0,1.0
1904-01-01 00:33:19.648369958,E4_Acc,2024-06-27 06:49:26.459589958,-16.0,-62.0,0.0
1904-01-01 00:33:19.679619958,E4_Acc,2024-06-27 06:49:26.490839958,-17.0,-63.0,0.0
1904-01-01 00:33:19.710879972,E4_Acc,2024-06-27 06:49:26.522099972,-17.0,-63.0,0.0
1904-01-01 00:33:19.742129972,E4_Acc,2024-06-27 06:49:26.553349972,-17.0,-62.0,0.0
1904-01-01 00:33:19.773379972,E4_Acc,2024-06-27 06:49:26.584599972,-17.0,-62.0,1.0
1904-01-01 00:33:19.804629972,E4_Acc,2024-06-27 06:49:26.615849972,-16.0,-62.0,1.0
1904-01-01 00:33:19.835879972,E4_Acc,2024-06-27 06:49:26.647099972,-17.0,-63.0,1.0
1904-01-01 00:33:19.867129972,E4_Acc,2024-06-27 06:49:26.678349972,-17.0,-63.0,1.0
1904-01-01 00:33:19.898379972,E4_Acc,2024-06-27 06:49:26.709599972,-17.0,-63.0,1.0
1904-01-01 00:33:19.929639985,E4_Acc,2024-06-27 06:49:26.740859985,-17.0,-62.0,0.0
1904-01-01 00:33:19.960889985,E4_Acc,2024-06-27 06:49:26.772109985,-17.0,-62.0,0.0
1904-01-01 00:33:19.992139985,E4_Acc,2024-06-27 06:49:26.803359985,-17.0,-62.0,1.0
1904-01-01 00:33:20.023389985,E4_Acc,2024-06-27 06:49:26.834609985,-17.0,-63.0,1.0
1904-01-01 00:33:20.054639985,E4_Acc,2024-06-27 06:49:26.865859985,-17.0,-63.0,1.0
1904-01-01 00:33:20.085889985,E4_Acc,2024-06-27 06:49:26.897109985,-16.0,-63.0,1.0
1904-01-01 00:33:20.117139985,E4_Acc,2024-06-27 06:49:26.928359985,-16.0,-62.0,0.0
1904-01-01 00:33:20.148399999,E4_Acc,2024-06-27 06:49:26.959619999,-16.0,-63.0,0.0
1904-01-01 00:33:20.179649999,E4_Acc,2024-06-27 06:49:26.990869999,-16.0,-63.0,0.0
1904-01-01 00:33:20.210899999,E4_Acc,2024-06-27 06:49:27.022119999,-16.0,-63.0,1.0
1904-01-01 00:33:20.242149999,E4_Acc,2024-06-27 06:49:27.053369999,-16.0,-62.0,0.0
1904-01-01 00:33:20.273399999,E4_Acc,2024-06-27 06:49:27.084619999,-16.0,-63.0,0.0
1904-01-01 00:33:20.304649999,E4_Acc,2024-06-27 06:49:27.115869999,-16.0,-63.0,0.0
1904-01-01 00:33:20.335899999,E4_Acc,2024-06-27 06:49:27.147119999,-16.0,-63.0,0.0
1904-01-01 00:33:20.367160013,E4_Acc,2024-06-27 06:49:27.178380013,-17.0,-63.0,0.0
1904-01-01 00:33:20.398410013,E4_Acc,2024-06-27 06:49:27.209630013,-16.0,-62.0,0.0
1904-01-01 00:33:20.429660013,E4_Acc,2024-06-27 06:49:27.240880013,-16.0,-63.0,1.0
1904-01-01 00:33:20.460910013,E4_Acc,2024-06-27 06:49:27.272130013,-16.0,-63.0,1.0
1904-01-01 00:33:20.492160013,E4_Acc,2024-06-27 06:49:27.303380013,-16.0,-62.0,1.0
1904-01-01 00:33:20.523410013,E4_Acc,2024-06-27 06:49:27.334630013,-16.0,-62.0,1.0
1904-01-01 00:33:20.554660013,E4_Acc,2024-06-27 06:49:27.365880013,-16.0,-64.0,0.0
1904-01-01 00:33:20.585920026,E4_Acc,2024-06-27 06:49:27.397140026,-17.0,-63.0,1.0
1904-01-01 00:33:20.617170026,E4_Acc,2024-06-27 06:49:27.428390026,-17.0,-62.0,1.0
1904-01-01 00:33:20.648420026,E4_Acc,2024-06-27 06:49:27.459640026,-17.0,-62.0,1.0
1904-01-01 00:33:20.679670026,E4_Acc,2024-06-27 06:49:27.490890026,-17.0,-62.0,1.0
1904-01-01 00:33:20.710920026,E4_Acc,2024-06-27 06:49:27.522140026,-17.0,-63.0,1.0
1904-01-01 00:33:20.742170026,E4_Acc,2024-06-27 06:49:27.553390026,-17.0,-63.0,1.0
1904-01-01 00:33:20.773420026,E4_Acc,2024-06-27 06:49:27.584640026,-17.0,-63.0,0.0
1904-01-01 00:33:20.804680040,E4_Acc,2024-06-27 06:49:27.615900040,-17.0,-62.0,1.0
1904-01-01 00:33:20.835930040,E4_Acc,2024-06-27 06:49:27.647150040,-17.0,-62.0,1.0
1904-01-01 00:33:20.867180040,E4_Acc,2024-06-27 06:49:27.678400040,-16.0,-62.0,1.0
1904-01-01 00:33:20.898430040,E4_Acc,2024-06-27 06:49:27.709650040,-17.0,-63.0,1.0
1904-01-01 00:33:20.929680040,E4_Acc,2024-06-27 06:49:27.740900040,-17.0,-63.0,1.0
1904-01-01 00:33:20.960930040,E4_Acc,2024-06-27 06:49:27.772150040,-17.0,-63.0,0.0
1904-01-01 00:33:20.992180040,E4_Acc,2024-06-27 06:49:27.803400040,-18.0,-63.0,0.0
1904-01-01 00:33:21.023440053,E4_Acc,2024-06-27 06:49:27.834660053,-17.0,-62.0,0.0
1904-01-01 00:33:21.054690053,E4_Acc,2024-06-27 06:49:27.865910053,-16.0,-62.0,1.0
1904-01-01 00:33:21.085940053,E4_Acc,2024-06-27 06:49:27.897160053,-17.0,-62.0,0.0
1904-01-01 00:33:21.117190053,E4_Acc,2024-06-27 06:49:27.928410053,-17.0,-63.0,1.0
1904-01-01 00:33:21.148440053,E4_Acc,2024-06-27 06:49:27.959660053,-17.0,-63.0,1.0
1904-01-01 00:33:21.179690053,E4_Acc,2024-06-27 06:49:27.990910053,-16.0,-63.0,1.0
1904-01-01 00:33:21.210940053,E4_Acc,2024-06-27 06:49:28.022160053,-15.0,-62.0,1.0
1904-01-01 00:33:21.242200067,E4_Acc,2024-06-27 06:49:28.053420067,-16.0,-62.0,1.0
1904-01-01 00:33:21.273450067,E4_Acc,2024-06-27 06:49:28.084670067,-16.0,-63.0,1.0
1904-01-01 00:33:21.304700067,E4_Acc,2024-06-27 06:49:28.115920067,-16.0,-63.0,1.0
1904-01-01 00:33:21.335950067,E4_Acc,2024-06-27 06:49:28.147170067,-17.0,-64.0,0.0
1904-01-01 00:33:21.367200067,E4_Acc,2024-06-27 06:49:28.178420067,-16.0,-62.0,0.0
1904-01-01 00:33:21.398450067,E4_Acc,2024-06-27 06:49:28.209670067,-17.0,-63.0,0.0
1904-01-01 00:33:21.429700067,E4_Acc,2024-06-27 06:49:28.240920067,-16.0,-63.0,0.0
1904-01-01 00:33:21.460960080,E4_Acc,2024-06-27 06:49:28.272180080,-16.0,-62.0,1.0
1904-01-01 00:33:21.492210080,E4_Acc,2024-06-27 06:49:28.303430080,-16.0,-62.0,1.0
1904-01-01 00:33:21.523460080,E4_Acc,2024-06-27 06:49:28.334680080,-16.0,-63.0,0.0
1904-01-01 00:33:21.554710080,E4_Acc,2024-06-27 06:49:28.365930080,-16.0,-63.0,0.0
1904-01-01 00:33:21.585960080,E4_Acc,2024-06-27 06:49:28.397180080,-17.0,-63.0,0.0
1904-01-01 00:33:21.617210080,E4_Acc,2024-06-27 06:49:28.428430080,-16.0,-62.0,0.0
1904-01-01 00:33:21.648460080,E4_Acc,2024-06-27 06:49:28.459680080,-16.0,-62.0,0.0
1904-01-01 00:33:21.679720094,E4_Acc,2024-06-27 06:49:28.490940094,-17.0,-63.0,0.0
1904-01-01 00:33:21.710970094,E4_Acc,2024-06-27 06:49:28.522190094,-17.0,-63.0,1.0
1904-01-01 00:33:21.742220094,E4_Acc,2024-06-27 06:49:28.553440094,-17.0,-63.0,0.0
1904-01-01 00:33:21.773470094,E4_Acc,2024-06-27 06:49:28.584690094,-16.0,-62.0,1.0
1904-01-01 00:33:21.804720094,E4_Acc,2024-06-27 06:49:28.615940094,-17.0,-62.0,1.0
1904-01-01 00:33:21.835970094,E4_Acc,2024-06-27 06:49:28.647190094,-17.0,-63.0,0.0
1904-01-01 00:33:21.867230108,E4_Acc,2024-06-27 06:49:28.678450108,-17.0,-63.0,0.0
1904-01-01 00:33:21.898480108,E4_Acc,2024-06-27 06:49:28.709700108,-17.0,-63.0,1.0
1904-01-01 00:33:21.929730108,E4_Acc,2024-06-27 06:49:28.740950108,-17.0,-63.0,0.0
1904-01-01 00:33:21.960980108,E4_Acc,2024-06-27 06:49:28.772200108,-17.0,-63.0,0.0
1904-01-01 00:33:21.992230108,E4_Acc,2024-06-27 06:49:28.803450108,-17.0,-62.0,0.0
1904-01-01 00:33:22.023480108,E4_Acc,2024-06-27 06:49:28.834700108,-17.0,-63.0,0.0
1904-01-01 00:33:22.054730108,E4_Acc,2024-06-27 06:49:28.865950108,-17.0,-62.0,1.0
1904-01-01 00:33:22.085989883,E4_Acc,2024-06-27 06:49:28.897209883,-16.0,-62.0,1.0
1904-01-01 00:33:22.117239883,E4_Acc,2024-06-27 06:49:28.928459883,-16.0,-62.0,1.0
1904-01-01 00:33:22.148489883,E4_Acc,2024-06-27 06:49:28.959709883,-16.0,-63.0,1.0
1904-01-01 00:33:22.179739883,E4_Acc,2024-06-27 06:49:28.990959883,-16.0,-63.0,0.0
1904-01-01 00:33:22.210989883,E4_Acc,2024-06-27 06:49:29.022209883,-16.0,-63.0,0.0
1904-01-01 00:33:22.242239883,E4_Acc,2024-06-27 06:49:29.053459883,-16.0,-61.0,0.0
1904-01-01 00:33:22.273489883,E4_Acc,2024-06-27 06:49:29.084709883,-16.0,-62.0,0.0
1904-01-01 00:33:22.304749896,E4_Acc,2024-06-27 06:49:29.115969896,-16.0,-63.0,0.0
1904-01-01 00:33:22.335999896,E4_Acc,2024-06-27 06:49:29.147219896,-16.0,-62.0,0.0
1904-01-01 00:33:22.367249896,E4_Acc,2024-06-27 06:49:29.178469896,-16.0,-63.0,0.0
1904-01-01 00:33:22.398499896,E4_Acc,2024-06-27 06:49:29.209719896,-16.0,-63.0,0.0
1904-01-01 00:33:22.429749896,E4_Acc,2024-06-27 06:49:29.240969896,-16.0,-62.0,0.0
1904-01-01 00:33:22.460999896,E4_Acc,2024-06-27 06:49:29.272219896,-17.0,-62.0,1.0
1904-01-01 00:33:22.492249896,E4_Acc,2024-06-27 06:49:29.303469896,-17.0,-62.0,1.0
1904-01-01 00:33:22.523509910,E4_Acc,2024-06-27 06:49:29.334729910,-17.0,-63.0,1.0
1904-01-01 00:33:22.554759910,E4_Acc,2024-06-27 06:49:29.365979910,-17.0,-63.0,1.0
1904-01-01 00:33:22.586009910,E4_Acc,2024-06-27 06:49:29.397229910,-17.0,-63.0,1.0
1904-01-01 00:33:22.617259910,E4_Acc,2024-06-27 06:49:29.428479910,-16.0,-62.0,1.0
1904-01-01 00:33:22.648509910,E4_Acc,2024-06-27 06:49:29.459729910,-16.0,-63.0,1.0
1904-01-01 00:33:22.679759910,E4_Acc,2024-06-27 06:49:29.490979910,-16.0,-63.0,0.0
1904-01-01 00:33:22.711009909,E4_Acc,2024-06-27 06:49:29.522229909,-16.0,-62.0,1.0
1904-01-01 00:33:22.742269923,E4_Acc,2024-06-27 06:49:29.553489923,-16.0,-63.0,1.0
1904-01-01 00:33:22.773519923,E4_Acc,2024-06-27 06:49:29.584739923,-16.0,-63.0,0.0
1904-01-01 00:33:22.804769923,E4_Acc,2024-06-27 06:49:29.615989923,-16.0,-62.0,1.0
1904-01-01 00:33:22.836019923,E4_Acc,2024-06-27 06:49:29.647239923,-16.0,-63.0,0.0
1904-01-01 00:33:22.867269923,E4_Acc,2024-06-27 06:49:29.678489923,-16.0,-63.0,0.0
1904-01-01 00:33:22.898519923,E4_Acc,2024-06-27 06:49:29.709739923,-16.0,-63.0,0.0
1904-01-01 00:33:22.929769923,E4_Acc,2024-06-27 06:49:29.740989923,-16.0,-63.0,1.0
1904-01-01 00:33:22.961029937,E4_Acc,2024-06-27 06:49:29.772249937,-16.0,-62.0,1.0
1904-01-01 00:33:22.992279937,E4_Acc,2024-06-27 06:49:29.803499937,-17.0,-62.0,1.0
1904-01-01 00:33:23.023529937,E4_Acc,2024-06-27 06:49:29.834749937,-17.0,-62.0,1.0
1904-01-01 00:33:23.054779937,E4_Acc,2024-06-27 06:49:29.865999937,-16.0,-62.0,1.0
1904-01-01 00:33:23.086029937,E4_Acc,2024-06-27 06:49:29.897249937,-16.0,-63.0,1.0
1904-01-01 00:33:23.117279937,E4_Acc,2024-06-27 06:49:29.928499937,-17.0,-63.0,1.0
1904-01-01 00:33:23.148529937,E4_Acc,2024-06-27 06:49:29.959749937,-16.0,-63.0,1.0
1904-01-01 00:33:23.179789951,E4_Acc,2024-06-27 06:49:29.991009951,-16.0,-62.0,1.0
1904-01-01 00:33:23.211039951,E4_Acc,2024-06-27 06:49:30.022259951,-16.0,-62.0,1.0
1904-01-01 00:33:23.242289951,E4_Acc,2024-06-27 06:49:30.053509951,-17.0,-62.0,1.0
1904-01-01 00:33:23.273539951,E4_Acc,2024-06-27 06:49:30.084759951,-17.0,-63.0,0.0
1904-01-01 00:33:23.304789951,E4_Acc,2024-06-27 06:49:30.116009951,-17.0,-63.0,1.0
1904-01-01 00:33:23.336039951,E4_Acc,2024-06-27 06:49:30.147259951,-16.0,-62.0,1.0
1904-01-01 00:33:23.367289951,E4_Acc,2024-06-27 06:49:30.178509951,-16.0,-62.0,1.0
1904-01-01 00:33:23.398549964,E4_Acc,2024-06-27 06:49:30.209769964,-16.0,-62.0,1.0
1904-01-01 00:33:23.429799964,E4_Acc,2024-06-27 06:49:30.241019964,-17.0,-63.0,0.0
1904-01-01 00:33:23.461049964,E4_Acc,2024-06-27 06:49:30.272269964,-17.0,-63.0,0.0
1904-01-01 00:33:23.492299964,E4_Acc,2024-06-27 06:49:30.303519964,-18.0,-63.0,1.0
1904-01-01 00:33:23.523549964,E4_Acc,2024-06-27 06:49:30.334769964,-17.0,-62.0,1.0
1904-01-01 00:33:23.554799964,E4_Acc,2024-06-27 06:49:30.366019964,-17.0,-62.0,1.0
1904-01-01 00:33:23.586049964,E4_Acc,2024-06-27 06:49:30.397269964,-17.0,-63.0,1.0
1904-01-01 00:33:23.617309978,E4_Acc,2024-06-27 06:49:30.428529978,-17.0,-63.0,1.0
1904-01-01 00:33:23.648559978,E4_Acc,2024-06-27 06:49:30.459779978,-17.0,-63.0,1.0
1904-01-01 00:33:23.679809978,E4_Acc,2024-06-27 06:49:30.491029978,-17.0,-63.0,0.0
1904-01-01 00:33:23.711059978,E4_Acc,2024-06-27 06:49:30.522279978,-16.0,-63.0,0.0
1904-01-01 00:33:23.742309978,E4_Acc,2024-06-27 06:49:30.553529978,-17.0,-62.0,0.0
1904-01-01 00:33:23.773559978,E4_Acc,2024-06-27 06:49:30.584779978,-17.0,-62.0,0.0
1904-01-01 00:33:23.804809978,E4_Acc,2024-06-27 06:49:30.616029978,-17.0,-63.0,0.0
1904-01-01 00:33:23.836069991,E4_Acc,2024-06-27 06:49:30.647289991,-17.0,-63.0,0.0
1904-01-01 00:33:23.867319991,E4_Acc,2024-06-27 06:49:30.678539991,-17.0,-63.0,1.0
1904-01-01 00:33:23.898569991,E4_Acc,2024-06-27 06:49:30.709789991,-17.0,-63.0,0.0
1904-01-01 00:33:23.929819991,E4_Acc,2024-06-27 06:49:30.741039991,-17.0,-62.0,0.0
1904-01-01 00:33:23.961069991,E4_Acc,2024-06-27 06:49:30.772289991,-17.0,-62.0,0.0
1904-01-01 00:33:23.992319991,E4_Acc,2024-06-27 06:49:30.803539991,-17.0,-62.0,0.0
1904-01-01 00:33:24.023569991,E4_Acc,2024-06-27 06:49:30.834789991,-17.0,-62.0,0.0
1904-01-01 00:33:24.054830005,E4_Acc,2024-06-27 06:49:30.866050005,-17.0,-62.0,0.0
1904-01-01 00:33:24.086080005,E4_Acc,2024-06-27 06:49:30.897300005,-17.0,-62.0,0.0
1904-01-01 00:33:24.117330005,E4_Acc,2024-06-27 06:49:30.928550005,-17.0,-62.0,0.0
1904-01-01 00:33:24.148580005,E4_Acc,2024-06-27 06:49:30.959800005,-17.0,-63.0,0.0
1904-01-01 00:33:24.179830005,E4_Acc,2024-06-27 06:49:30.991050005,-17.0,-62.0,0.0
1904-01-01 00:33:24.211080005,E4_Acc,2024-06-27 06:49:31.022300005,-17.0,-63.0,0.0
1904-01-01 00:33:24.242340019,E4_Acc,2024-06-27 06:49:31.053560019,-16.0,-63.0,0.0
1904-01-01 00:33:24.273590019,E4_Acc,2024-06-27 06:49:31.084810019,-17.0,-62.0,0.0
1904-01-01 00:33:24.304840019,E4_Acc,2024-06-27 06:49:31.116060019,-17.0,-63.0,0.0
1904-01-01 00:33:24.336090019,E4_Acc,2024-06-27 06:49:31.147310019,-17.0,-63.0,0.0
1904-01-01 00:33:24.367340019,E4_Acc,2024-06-27 06:49:31.178560019,-17.0,-62.0,0.0
1904-01-01 00:33:24.398590019,E4_Acc,2024-06-27 06:49:31.209810019,-17.0,-62.0,1.0
1904-01-01 00:33:24.429840019,E4_Acc,2024-06-27 06:49:31.241060019,-17.0,-62.0,0.0
1904-01-01 00:33:24.461100032,E4_Acc,2024-06-27 06:49:31.272320032,-17.0,-62.0,0.0
1904-01-01 00:33:24.492350032,E4_Acc,2024-06-27 06:49:31.303570032,-17.0,-62.0,0.0
1904-01-01 00:33:24.523600032,E4_Acc,2024-06-27 06:49:31.334820032,-18.0,-64.0,0.0
1904-01-01 00:33:24.554850032,E4_Acc,2024-06-27 06:49:31.366070032,-17.0,-63.0,0.0
1904-01-01 00:33:24.586100032,E4_Acc,2024-06-27 06:49:31.397320032,-17.0,-62.0,1.0
1904-01-01 00:33:24.617350032,E4_Acc,2024-06-27 06:49:31.428570032,-17.0,-62.0,0.0
1904-01-01 00:33:24.648600032,E4_Acc,2024-06-27 06:49:31.459820032,-17.0,-62.0,0.0
1904-01-01 00:33:24.679860046,E4_Acc,2024-06-27 06:49:31.491080046,-17.0,-63.0,0.0
1904-01-01 00:33:24.711110046,E4_Acc,2024-06-27 06:49:31.522330046,-17.0,-63.0,0.0
1904-01-01 00:33:24.742360046,E4_Acc,2024-06-27 06:49:31.553580046,-17.0,-63.0,0.0
1904-01-01 00:33:24.773610046,E4_Acc,2024-06-27 06:49:31.584830046,-16.0,-62.0,0.0
1904-01-01 00:33:24.804860046,E4_Acc,2024-06-27 06:49:31.616080046,-16.0,-62.0,1.0
1904-01-01 00:33:24.836110046,E4_Acc,2024-06-27 06:49:31.647330046,-17.0,-62.0,1.0
1904-01-01 00:33:24.867360046,E4_Acc,2024-06-27 06:49:31.678580046,-17.0,-63.0,0.0
1904-01-01 00:33:24.898620059,E4_Acc,2024-06-27 06:49:31.709840059,-18.0,-63.0,1.0
1904-01-01 00:33:24.929870059,E4_Acc,2024-06-27 06:49:31.741090059,-17.0,-62.0,0.0
1904-01-01 00:33:24.961120059,E4_Acc,2024-06-27 06:49:31.772340059,-17.0,-62.0,1.0
1904-01-01 00:33:24.992370059,E4_Acc,2024-06-27 06:49:31.803590059,-17.0,-62.0,0.0
1904-01-01 00:33:25.023620059,E4_Acc,2024-06-27 06:49:31.834840059,-17.0,-62.0,0.0
1904-01-01 00:33:25.054870059,E4_Acc,2024-06-27 06:49:31.866090059,-17.0,-63.0,1.0
1904-01-01 00:33:25.086120059,E4_Acc,2024-06-27 06:49:31.897340059,-17.0,-63.0,1.0
1904-01-01 00:33:25.117380073,E4_Acc,2024-06-27 06:49:31.928600073,-17.0,-62.0,1.0
1904-01-01 00:33:25.148630073,E4_Acc,2024-06-27 06:49:31.959850073,-17.0,-62.0,1.0
1904-01-01 00:33:25.179880073,E4_Acc,2024-06-27 06:49:31.991100073,-17.0,-62.0,1.0
1904-01-01 00:33:25.211130073,E4_Acc,2024-06-27 06:49:32.022350073,-17.0,-62.0,1.0
1904-01-01 00:33:25.242380073,E4_Acc,2024-06-27 06:49:32.053600073,-17.0,-62.0,1.0
1904-01-01 00:33:25.273630073,E4_Acc,2024-06-27 06:49:32.084850073,-17.0,-63.0,0.0
1904-01-01 00:33:25.304880073,E4_Acc,2024-06-27 06:49:32.116100073,-17.0,-63.0,0.0
1904-01-01 00:33:25.336140086,E4_Acc,2024-06-27 06:49:32.147360086,-16.0,-62.0,0.0
1904-01-01 00:33:25.367390086,E4_Acc,2024-06-27 06:49:32.178610086,-17.0,-62.0,0.0
1904-01-01 00:33:25.398640086,E4_Acc,2024-06-27 06:49:32.209860086,-17.0,-63.0,0.0
1904-01-01 00:33:25.429890086,E4_Acc,2024-06-27 06:49:32.241110086,-17.0,-63.0,0.0
1904-01-01 00:33:25.461140086,E4_Acc,2024-06-27 06:49:32.272360086,-17.0,-62.0,1.0
1904-01-01 00:33:25.492390086,E4_Acc,2024-06-27 06:49:32.303610086,-17.0,-62.0,1.0
1904-01-01 00:33:25.523640086,E4_Acc,2024-06-27 06:49:32.334860086,-16.0,-62.0,0.0
1904-01-01 00:33:25.554900100,E4_Acc,2024-06-27 06:49:32.366120100,-16.0,-63.0,0.0
1904-01-01 00:33:25.586150100,E4_Acc,2024-06-27 06:49:32.397370100,-17.0,-63.0,0.0
1904-01-01 00:33:25.617400100,E4_Acc,2024-06-27 06:49:32.428620100,-17.0,-63.0,1.0
1904-01-01 00:33:25.648650100,E4_Acc,2024-06-27 06:49:32.459870100,-17.0,-63.0,0.0
1904-01-01 00:33:25.679900100,E4_Acc,2024-06-27 06:49:32.491120100,-16.0,-62.0,0.0
1904-01-01 00:33:25.711150099,E4_Acc,2024-06-27 06:49:32.522370099,-16.0,-62.0,1.0
1904-01-01 00:33:25.742400100,E4_Acc,2024-06-27 06:49:32.553620100,-17.0,-62.0,1.0
1904-01-01 00:33:25.773660114,E4_Acc,2024-06-27 06:49:32.584880114,-16.0,-63.0,0.0
1904-01-01 00:33:25.804910114,E4_Acc,2024-06-27 06:49:32.616130114,-18.0,-63.0,0.0
1904-01-01 00:33:25.836160114,E4_Acc,2024-06-27 06:49:32.647380114,-16.0,-62.0,0.0
1904-01-01 00:33:25.867410114,E4_Acc,2024-06-27 06:49:32.678630114,-18.0,-63.0,1.0
1904-01-01 00:33:25.898660114,E4_Acc,2024-06-27 06:49:32.709880114,-17.0,-62.0,1.0
1904-01-01 00:33:25.929910114,E4_Acc,2024-06-27 06:49:32.741130114,-17.0,-62.0,0.0
1904-01-01 00:33:25.961160114,E4_Acc,2024-06-27 06:49:32.772380114,-17.0,-63.0,0.0
1904-01-01 00:33:25.992419889,E4_Acc,2024-06-27 06:49:32.803639889,-17.0,-63.0,0.0
1904-01-01 00:33:26.023669889,E4_Acc,2024-06-27 06:49:32.834889889,-17.0,-63.0,0.0
1904-01-01 00:33:26.054919889,E4_Acc,2024-06-27 06:49:32.866139889,-17.0,-62.0,0.0
1904-01-01 00:33:26.086169889,E4_Acc,2024-06-27 06:49:32.897389889,-16.0,-62.0,1.0
1904-01-01 00:33:26.117419889,E4_Acc,2024-06-27 06:49:32.928639889,-17.0,-62.0,1.0
1904-01-01 00:33:26.148669889,E4_Acc,2024-06-27 06:49:32.959889889,-17.0,-63.0,0.0
1904-01-01 00:33:26.179919889,E4_Acc,2024-06-27 06:49:32.991139889,-18.0,-63.0,1.0
1904-01-01 00:33:26.211179902,E4_Acc,2024-06-27 06:49:33.022399902,-18.0,-62.0,0.0
1904-01-01 00:33:26.242429902,E4_Acc,2024-06-27 06:49:33.053649902,-18.0,-62.0,1.0
1904-01-01 00:33:26.273679902,E4_Acc,2024-06-27 06:49:33.084899902,-18.0,-62.0,1.0
1904-01-01 00:33:26.304929902,E4_Acc,2024-06-27 06:49:33.116149902,-18.0,-62.0,1.0
1904-01-01 00:33:26.336179902,E4_Acc,2024-06-27 06:49:33.147399902,-18.0,-63.0,2.0
1904-01-01 00:33:26.367429902,E4_Acc,2024-06-27 06:49:33.178649902,-18.0,-62.0,1.0
1904-01-01 00:33:26.398679902,E4_Acc,2024-06-27 06:49:33.209899902,-18.0,-62.0,1.0
1904-01-01 00:33:26.429939916,E4_Acc,2024-06-27 06:49:33.241159916,-17.0,-62.0,1.0
1904-01-01 00:33:26.461189916,E4_Acc,2024-06-27 06:49:33.272409916,-17.0,-63.0,1.0
1904-01-01 00:33:26.492439916,E4_Acc,2024-06-27 06:49:33.303659916,-18.0,-63.0,1.0
1904-01-01 00:33:26.523689916,E4_Acc,2024-06-27 06:49:33.334909916,-18.0,-62.0,1.0
1904-01-01 00:33:26.554939916,E4_Acc,2024-06-27 06:49:33.366159916,-17.0,-62.0,1.0
1904-01-01 00:33:26.586189916,E4_Acc,2024-06-27 06:49:33.397409916,-17.0,-62.0,1.0
1904-01-01 00:33:26.617439916,E4_Acc,2024-06-27 06:49:33.428659916,-17.0,-63.0,1.0
1904-01-01 00:33:26.648699930,E4_Acc,2024-06-27 06:49:33.459919930,-17.0,-63.0,1.0
1904-01-01 00:33:26.679949930,E4_Acc,2024-06-27 06:49:33.491169930,-18.0,-62.0,1.0
1904-01-01 00:33:26.711199930,E4_Acc,2024-06-27 06:49:33.522419930,-17.0,-62.0,1.0
1904-01-01 00:33:26.742449930,E4_Acc,2024-06-27 06:49:33.553669930,-17.0,-62.0,1.0
1904-01-01 00:33:26.773699930,E4_Acc,2024-06-27 06:49:33.584919930,-17.0,-62.0,1.0
1904-01-01 00:33:26.804949930,E4_Acc,2024-06-27 06:49:33.616169930,-17.0,-63.0,1.0
1904-01-01 00:33:26.836199930,E4_Acc,2024-06-27 06:49:33.647419930,-17.0,-63.0,1.0
1904-01-01 00:33:26.867459943,E4_Acc,2024-06-27 06:49:33.678679943,-17.0,-62.0,1.0
1904-01-01 00:33:26.898709943,E4_Acc,2024-06-27 06:49:33.709929943,-18.0,-63.0,1.0
1904-01-01 00:33:26.929959943,E4_Acc,2024-06-27 06:49:33.741179943,-18.0,-62.0,1.0
1904-01-01 00:33:26.961209943,E4_Acc,2024-06-27 06:49:33.772429943,-17.0,-62.0,1.0
1904-01-01 00:33:26.992459943,E4_Acc,2024-06-27 06:49:33.803679943,-17.0,-62.0,1.0
1904-01-01 00:33:27.023709943,E4_Acc,2024-06-27 06:49:33.834929943,-17.0,-63.0,1.0
1904-01-01 00:33:27.054969957,E4_Acc,2024-06-27 06:49:33.866189957,-17.0,-63.0,1.0
1904-01-01 00:33:27.086219957,E4_Acc,2024-06-27 06:49:33.897439957,-17.0,-63.0,1.0
1904-01-01 00:33:27.117469957,E4_Acc,2024-06-27 06:49:33.928689957,-17.0,-63.0,1.0
1904-01-01 00:33:27.148719957,E4_Acc,2024-06-27 06:49:33.959939957,-17.0,-62.0,1.0
1904-01-01 00:33:27.179969957,E4_Acc,2024-06-27 06:49:33.991189957,-17.0,-62.0,1.0
1904-01-01 00:33:27.211219957,E4_Acc,2024-06-27 06:49:34.022439957,-18.0,-62.0,1.0
1904-01-01 00:33:27.242469957,E4_Acc,2024-06-27 06:49:34.053689957,-18.0,-62.0,1.0
1904-01-01 00:33:27.273729970,E4_Acc,2024-06-27 06:49:34.084949970,-17.0,-62.0,1.0
1904-01-01 00:33:27.304979970,E4_Acc,2024-06-27 06:49:34.116199970,-17.0,-62.0,1.0
1904-01-01 00:33:27.336229970,E4_Acc,2024-06-27 06:49:34.147449970,-18.0,-62.0,0.0
1904-01-01 00:33:27.367479970,E4_Acc,2024-06-27 06:49:34.178699970,-17.0,-62.0,1.0
1904-01-01 00:33:27.398729970,E4_Acc,2024-06-27 06:49:34.209949970,-18.0,-62.0,1.0
1904-01-01 00:33:27.429979970,E4_Acc,2024-06-27 06:49:34.241199970,-17.0,-62.0,1.0
1904-01-01 00:33:27.461229970,E4_Acc,2024-06-27 06:49:34.272449970,-18.0,-63.0,1.0
1904-01-01 00:33:27.492489984,E4_Acc,2024-06-27 06:49:34.303709984,-17.0,-63.0,1.0
1904-01-01 00:33:27.523739984,E4_Acc,2024-06-27 06:49:34.334959984,-17.0,-62.0,1.0
1904-01-01 00:33:27.554989984,E4_Acc,2024-06-27 06:49:34.366209984,-17.0,-62.0,1.0
1904-01-01 00:33:27.586239984,E4_Acc,2024-06-27 06:49:34.397459984,-17.0,-63.0,1.0
1904-01-01 00:33:27.617489984,E4_Acc,2024-06-27 06:49:34.428709984,-16.0,-62.0,1.0
1904-01-01 00:33:27.648739984,E4_Acc,2024-06-27 06:49:34.459959984,-17.0,-63.0,1.0
1904-01-01 00:33:27.679989984,E4_Acc,2024-06-27 06:49:34.491209984,-17.0,-62.0,1.0
1904-01-01 00:33:27.711249996,E4_Acc,2024-06-27 06:49:34.522469996,-17.0,-62.0,1.0
1904-01-01 00:33:27.742499997,E4_Acc,2024-06-27 06:49:34.553719997,-17.0,-62.0,0.0
1904-01-01 00:33:27.773749997,E4_Acc,2024-06-27 06:49:34.584969997,-16.0,-63.0,1.0
1904-01-01 00:33:27.804999997,E4_Acc,2024-06-27 06:49:34.616219997,-17.0,-63.0,1.0
1904-01-01 00:33:27.836249997,E4_Acc,2024-06-27 06:49:34.647469997,-17.0,-62.0,1.0
1904-01-01 00:33:27.867499997,E4_Acc,2024-06-27 06:49:34.678719997,-17.0,-62.0,1.0
1904-01-01 00:33:27.898749997,E4_Acc,2024-06-27 06:49:34.709969997,-18.0,-62.0,1.0
1904-01-01 00:33:27.930010011,E4_Acc,2024-06-27 06:49:34.741230011,-18.0,-62.0,1.0
1904-01-01 00:33:27.961260011,E4_Acc,2024-06-27 06:49:34.772480011,-18.0,-62.0,1.0
1904-01-01 00:33:27.992510011,E4_Acc,2024-06-27 06:49:34.803730011,-18.0,-63.0,0.0
1904-01-01 00:33:28.023760011,E4_Acc,2024-06-27 06:49:34.834980011,-17.0,-62.0,1.0
1904-01-01 00:33:28.055010011,E4_Acc,2024-06-27 06:49:34.866230011,-17.0,-62.0,0.0
1904-01-01 00:33:28.086260011,E4_Acc,2024-06-27 06:49:34.897480011,-16.0,-63.0,1.0
1904-01-01 00:33:28.117510011,E4_Acc,2024-06-27 06:49:34.928730011,-17.0,-63.0,0.0
1904-01-01 00:33:28.148770025,E4_Acc,2024-06-27 06:49:34.959990025,-17.0,-62.0,1.0
1904-01-01 00:33:28.180020025,E4_Acc,2024-06-27 06:49:34.991240025,-17.0,-62.0,1.0
1904-01-01 00:33:28.211270025,E4_Acc,2024-06-27 06:49:35.022490025,-17.0,-63.0,1.0
1904-01-01 00:33:28.242520025,E4_Acc,2024-06-27 06:49:35.053740025,-19.0,-62.0,1.0
1904-01-01 00:33:28.273770025,E4_Acc,2024-06-27 06:49:35.084990025,-18.0,-62.0,1.0
1904-01-01 00:33:28.305020025,E4_Acc,2024-06-27 06:49:35.116240025,-18.0,-62.0,1.0
1904-01-01 00:33:28.336270025,E4_Acc,2024-06-27 06:49:35.147490025,-17.0,-62.0,1.0
1904-01-01 00:33:28.367530038,E4_Acc,2024-06-27 06:49:35.178750038,-17.0,-63.0,1.0
1904-01-01 00:33:28.398780038,E4_Acc,2024-06-27 06:49:35.210000038,-18.0,-62.0,0.0
1904-01-01 00:33:28.430030038,E4_Acc,2024-06-27 06:49:35.241250038,-17.0,-62.0,1.0
1904-01-01 00:33:28.461280038,E4_Acc,2024-06-27 06:49:35.272500038,-18.0,-63.0,1.0
1904-01-01 00:33:28.492530038,E4_Acc,2024-06-27 06:49:35.303750038,-17.0,-62.0,1.0
1904-01-01 00:33:28.523780038,E4_Acc,2024-06-27 06:49:35.335000038,-17.0,-62.0,1.0
1904-01-01 00:33:28.555030038,E4_Acc,2024-06-27 06:49:35.366250038,-17.0,-62.0,0.0
1904-01-01 00:33:28.586290052,E4_Acc,2024-06-27 06:49:35.397510052,-17.0,-63.0,0.0
1904-01-01 00:33:28.617540052,E4_Acc,2024-06-27 06:49:35.428760052,-17.0,-63.0,1.0
1904-01-01 00:33:28.648790052,E4_Acc,2024-06-27 06:49:35.460010052,-17.0,-63.0,1.0
1904-01-01 00:33:28.680040052,E4_Acc,2024-06-27 06:49:35.491260052,-17.0,-62.0,1.0
1904-01-01 00:33:28.711290052,E4_Acc,2024-06-27 06:49:35.522510052,-17.0,-62.0,1.0
1904-01-01 00:33:28.742540052,E4_Acc,2024-06-27 06:49:35.553760052,-17.0,-62.0,1.0
1904-01-01 00:33:28.773790052,E4_Acc,2024-06-27 06:49:35.585010052,-18.0,-63.0,0.0
1904-01-01 00:33:28.805050065,E4_Acc,2024-06-27 06:49:35.616270065,-17.0,-63.0,0.0
1904-01-01 00:33:28.836300065,E4_Acc,2024-06-27 06:49:35.647520065,-17.0,-63.0,0.0
1904-01-01 00:33:28.867550065,E4_Acc,2024-06-27 06:49:35.678770065,-17.0,-62.0,1.0
1904-01-01 00:33:28.898800065,E4_Acc,2024-06-27 06:49:35.710020065,-17.0,-62.0,1.0
1904-01-01 00:33:28.930050065,E4_Acc,2024-06-27 06:49:35.741270065,-18.0,-63.0,1.0
1904-01-01 00:33:28.961300065,E4_Acc,2024-06-27 06:49:35.772520065,-18.0,-63.0,0.0
1904-01-01 00:33:28.992550065,E4_Acc,2024-06-27 06:49:35.803770065,-17.0,-62.0,0.0
1904-01-01 00:33:29.023810079,E4_Acc,2024-06-27 06:49:35.835030079,-17.0,-63.0,0.0
1904-01-01 00:33:29.055060079,E4_Acc,2024-06-27 06:49:35.866280079,-16.0,-62.0,0.0
1904-01-01 00:33:29.086310079,E4_Acc,2024-06-27 06:49:35.897530079,-17.0,-62.0,0.0
1904-01-01 00:33:29.117560079,E4_Acc,2024-06-27 06:49:35.928780079,-17.0,-63.0,1.0
1904-01-01 00:33:29.148810079,E4_Acc,2024-06-27 06:49:35.960030079,-17.0,-63.0,1.0
1904-01-01 00:33:29.180060079,E4_Acc,2024-06-27 06:49:35.991280079,-17.0,-62.0,1.0
1904-01-01 00:33:29.211320092,E4_Acc,2024-06-27 06:49:36.022540092,-16.0,-62.0,1.0
1904-01-01 00:33:29.242570092,E4_Acc,2024-06-27 06:49:36.053790092,-17.0,-62.0,0.0
1904-01-01 00:33:29.273820092,E4_Acc,2024-06-27 06:49:36.085040092,-17.0,-63.0,0.0
1904-01-01 00:33:29.305070092,E4_Acc,2024-06-27 06:49:36.116290092,-18.0,-63.0,0.0
1904-01-01 00:33:29.336320092,E4_Acc,2024-06-27 06:49:36.147540092,-17.0,-62.0,0.0
1904-01-01 00:33:29.367570092,E4_Acc,2024-06-27 06:49:36.178790092,-16.0,-62.0,0.0
1904-01-01 00:33:29.398820092,E4_Acc,2024-06-27 06:49:36.210040092,-17.0,-63.0,0.0
1904-01-01 00:33:29.430080106,E4_Acc,2024-06-27 06:49:36.241300106,-17.0,-63.0,1.0
1904-01-01 00:33:29.461330106,E4_Acc,2024-06-27 06:49:36.272550106,-17.0,-62.0,1.0
1904-01-01 00:33:29.492580106,E4_Acc,2024-06-27 06:49:36.303800106,-17.0,-62.0,1.0
1904-01-01 00:33:29.523830106,E4_Acc,2024-06-27 06:49:36.335050106,-17.0,-63.0,0.0
1904-01-01 00:33:29.555080106,E4_Acc,2024-06-27 06:49:36.366300106,-18.0,-63.0,0.0
1904-01-01 00:33:29.586330106,E4_Acc,2024-06-27 06:49:36.397550106,-18.0,-62.0,0.0
1904-01-01 00:33:29.617580106,E4_Acc,2024-06-27 06:49:36.428800106,-18.0,-62.0,0.0
1904-01-01 00:33:29.648839881,E4_Acc,2024-06-27 06:49:36.460059881,-17.0,-62.0,1.0
1904-01-01 00:33:29.680089881,E4_Acc,2024-06-27 06:49:36.491309881,-17.0,-62.0,1.0
1904-01-01 00:33:29.711339880,E4_Acc,2024-06-27 06:49:36.522559880,-17.0,-63.0,0.0
1904-01-01 00:33:29.742589881,E4_Acc,2024-06-27 06:49:36.553809881,-18.0,-63.0,0.0
1904-01-01 00:33:29.773839881,E4_Acc,2024-06-27 06:49:36.585059881,-17.0,-63.0,0.0
1904-01-01 00:33:29.805089881,E4_Acc,2024-06-27 06:49:36.616309881,-17.0,-62.0,1.0
1904-01-01 00:33:29.836339881,E4_Acc,2024-06-27 06:49:36.647559881,-17.0,-62.0,1.0
1904-01-01 00:33:29.867599895,E4_Acc,2024-06-27 06:49:36.678819895,-18.0,-62.0,0.0
1904-01-01 00:33:29.898849895,E4_Acc,2024-06-27 06:49:36.710069895,-17.0,-62.0,0.0
1904-01-01 00:33:29.930099895,E4_Acc,2024-06-27 06:49:36.741319895,-18.0,-63.0,1.0
1904-01-01 00:33:29.961349895,E4_Acc,2024-06-27 06:49:36.772569895,-17.0,-63.0,0.0
1904-01-01 00:33:29.992599895,E4_Acc,2024-06-27 06:49:36.803819895,-17.0,-62.0,1.0
1904-01-01 00:33:30.023849895,E4_Acc,2024-06-27 06:49:36.835069895,-17.0,-62.0,1.0
1904-01-01 00:33:30.055099895,E4_Acc,2024-06-27 06:49:36.866319895,-17.0,-63.0,0.0
1904-01-01 00:33:30.086359908,E4_Acc,2024-06-27 06:49:36.897579908,-17.0,-63.0,0.0
1904-01-01 00:33:30.117609908,E4_Acc,2024-06-27 06:49:36.928829908,-16.0,-62.0,0.0
1904-01-01 00:33:30.148859908,E4_Acc,2024-06-27 06:49:36.960079908,-16.0,-63.0,1.0
1904-01-01 00:33:30.180109908,E4_Acc,2024-06-27 06:49:36.991329908,-17.0,-63.0,1.0
1904-01-01 00:33:30.211359908,E4_Acc,2024-06-27 06:49:37.022579908,-18.0,-62.0,2.0
1904-01-01 00:33:30.242609908,E4_Acc,2024-06-27 06:49:37.053829908,-19.0,-62.0,1.0
1904-01-01 00:33:30.273859908,E4_Acc,2024-06-27 06:49:37.085079908,-19.0,-62.0,2.0
1904-01-01 00:33:30.305119922,E4_Acc,2024-06-27 06:49:37.116339922,-20.0,-62.0,1.0
1904-01-01 00:33:30.336369922,E4_Acc,2024-06-27 06:49:37.147589922,-20.0,-63.0,1.0
1904-01-01 00:33:30.367619922,E4_Acc,2024-06-27 06:49:37.178839922,-19.0,-62.0,2.0
1904-01-01 00:33:30.398869922,E4_Acc,2024-06-27 06:49:37.210089922,-19.0,-62.0,1.0
1904-01-01 00:33:30.430119922,E4_Acc,2024-06-27 06:49:37.241339922,-18.0,-62.0,1.0
1904-01-01 00:33:30.461369922,E4_Acc,2024-06-27 06:49:37.272589922,-19.0,-62.0,2.0
1904-01-01 00:33:30.492619922,E4_Acc,2024-06-27 06:49:37.303839922,-18.0,-62.0,2.0
1904-01-01 00:33:30.523879936,E4_Acc,2024-06-27 06:49:37.335099936,-18.0,-62.0,1.0
1904-01-01 00:33:30.555129936,E4_Acc,2024-06-27 06:49:37.366349936,-17.0,-62.0,0.0
1904-01-01 00:33:30.586379936,E4_Acc,2024-06-27 06:49:37.397599936,-17.0,-62.0,0.0
1904-01-01 00:33:30.617629936,E4_Acc,2024-06-27 06:49:37.428849936,-18.0,-62.0,1.0
1904-01-01 00:33:30.648879936,E4_Acc,2024-06-27 06:49:37.460099936,-18.0,-63.0,1.0
1904-01-01 00:33:30.680129936,E4_Acc,2024-06-27 06:49:37.491349936,-19.0,-63.0,1.0
1904-01-01 00:33:30.711379936,E4_Acc,2024-06-27 06:49:37.522599936,-18.0,-62.0,2.0
1904-01-01 00:33:30.742639949,E4_Acc,2024-06-27 06:49:37.553859949,-18.0,-61.0,2.0
1904-01-01 00:33:30.773889949,E4_Acc,2024-06-27 06:49:37.585109949,-19.0,-62.0,1.0
1904-01-01 00:33:30.805139949,E4_Acc,2024-06-27 06:49:37.616359949,-19.0,-63.0,1.0
1904-01-01 00:33:30.836389949,E4_Acc,2024-06-27 06:49:37.647609949,-19.0,-63.0,1.0
1904-01-01 00:33:30.867639949,E4_Acc,2024-06-27 06:49:37.678859949,-19.0,-63.0,1.0
1904-01-01 00:33:30.898889949,E4_Acc,2024-06-27 06:49:37.710109949,-17.0,-61.0,1.0
1904-01-01 00:33:30.930139949,E4_Acc,2024-06-27 06:49:37.741359949,-16.0,-62.0,2.0
1904-01-01 00:33:30.961399963,E4_Acc,2024-06-27 06:49:37.772619963,-17.0,-62.0,1.0
1904-01-01 00:33:30.992649963,E4_Acc,2024-06-27 06:49:37.803869963,-18.0,-63.0,0.0
1904-01-01 00:33:31.023899963,E4_Acc,2024-06-27 06:49:37.835119963,-18.0,-63.0,0.0
1904-01-01 00:33:31.055149963,E4_Acc,2024-06-27 06:49:37.866369963,-18.0,-62.0,0.0
1904-01-01 00:33:31.086399963,E4_Acc,2024-06-27 06:49:37.897619963,-17.0,-62.0,1.0
1904-01-01 00:33:31.117649963,E4_Acc,2024-06-27 06:49:37.928869963,-17.0,-62.0,1.0
1904-01-01 00:33:31.148899963,E4_Acc,2024-06-27 06:49:37.960119963,-18.0,-62.0,1.0
1904-01-01 00:33:31.180159976,E4_Acc,2024-06-27 06:49:37.991379976,-18.0,-62.0,1.0
1904-01-01 00:33:31.211409976,E4_Acc,2024-06-27 06:49:38.022629976,-18.0,-63.0,0.0
1904-01-01 00:33:31.242659976,E4_Acc,2024-06-27 06:49:38.053879976,-18.0,-63.0,1.0
1904-01-01 00:33:31.273909976,E4_Acc,2024-06-27 06:49:38.085129976,-18.0,-62.0,1.0
1904-01-01 00:33:31.305159976,E4_Acc,2024-06-27 06:49:38.116379976,-17.0,-62.0,0.0
1904-01-01 00:33:31.336409976,E4_Acc,2024-06-27 06:49:38.147629976,-17.0,-62.0,1.0
1904-01-01 00:33:31.367659976,E4_Acc,2024-06-27 06:49:38.178879976,-17.0,-62.0,1.0
1904-01-01 00:33:31.398919990,E4_Acc,2024-06-27 06:49:38.210139990,-17.0,-63.0,0.0
1904-01-01 00:33:31.430169990,E4_Acc,2024-06-27 06:49:38.241389990,-17.0,-63.0,0.0
1904-01-01 00:33:31.461419990,E4_Acc,2024-06-27 06:49:38.272639990,-17.0,-62.0,0.0
1904-01-01 00:33:31.492669990,E4_Acc,2024-06-27 06:49:38.303889990,-17.0,-62.0,0.0
1904-01-01 00:33:31.523919990,E4_Acc,2024-06-27 06:49:38.335139990,-17.0,-63.0,0.0
1904-01-01 00:33:31.555169990,E4_Acc,2024-06-27 06:49:38.366389990,-18.0,-63.0,0.0
1904-01-01 00:33:31.586430003,E4_Acc,2024-06-27 06:49:38.397650003,-18.0,-63.0,0.0
1904-01-01 00:33:31.617680003,E4_Acc,2024-06-27 06:49:38.428900003,-17.0,-62.0,0.0
1904-01-01 00:33:31.648930003,E4_Acc,2024-06-27 06:49:38.460150003,-18.0,-62.0,0.0
1904-01-01 00:33:31.680180003,E4_Acc,2024-06-27 06:49:38.491400003,-18.0,-62.0,0.0
1904-01-01 00:33:31.711430003,E4_Acc,2024-06-27 06:49:38.522650003,-18.0,-63.0,0.0
1904-01-01 00:33:31.742680003,E4_Acc,2024-06-27 06:49:38.553900003,-18.0,-63.0,0.0
1904-01-01 00:33:31.773930003,E4_Acc,2024-06-27 06:49:38.585150003,-17.0,-62.0,1.0
1904-01-01 00:33:31.805190017,E4_Acc,2024-06-27 06:49:38.616410017,-18.0,-62.0,0.0
1904-01-01 00:33:31.836440017,E4_Acc,2024-06-27 06:49:38.647660017,-18.0,-63.0,0.0
1904-01-01 00:33:31.867690017,E4_Acc,2024-06-27 06:49:38.678910017,-18.0,-62.0,0.0
1904-01-01 00:33:31.898940017,E4_Acc,2024-06-27 06:49:38.710160017,-18.0,-62.0,0.0
1904-01-01 00:33:31.930190017,E4_Acc,2024-06-27 06:49:38.741410017,-18.0,-62.0,0.0
1904-01-01 00:33:31.961440017,E4_Acc,2024-06-27 06:49:38.772660017,-17.0,-62.0,1.0
1904-01-01 00:33:31.992690017,E4_Acc,2024-06-27 06:49:38.803910017,-17.0,-62.0,1.0
1904-01-01 00:33:32.023950031,E4_Acc,2024-06-27 06:49:38.835170031,-18.0,-62.0,0.0
1904-01-01 00:33:32.055200031,E4_Acc,2024-06-27 06:49:38.866420031,-18.0,-63.0,0.0
1904-01-01 00:33:32.086450031,E4_Acc,2024-06-27 06:49:38.897670031,-18.0,-62.0,0.0
1904-01-01 00:33:32.117700031,E4_Acc,2024-06-27 06:49:38.928920031,-17.0,-63.0,0.0
1904-01-01 00:33:32.148950031,E4_Acc,2024-06-27 06:49:38.960170031,-17.0,-62.0,0.0
1904-01-01 00:33:32.180200031,E4_Acc,2024-06-27 06:49:38.991420031,-17.0,-62.0,0.0
1904-01-01 00:33:32.211450031,E4_Acc,2024-06-27 06:49:39.022670031,-17.0,-62.0,0.0
1904-01-01 00:33:32.242710044,E4_Acc,2024-06-27 06:49:39.053930044,-17.0,-63.0,0.0
1904-01-01 00:33:32.273960044,E4_Acc,2024-06-27 06:49:39.085180044,-18.0,-63.0,0.0
1904-01-01 00:33:32.305210044,E4_Acc,2024-06-27 06:49:39.116430044,-18.0,-62.0,1.0
1904-01-01 00:33:32.336460044,E4_Acc,2024-06-27 06:49:39.147680044,-18.0,-62.0,0.0
1904-01-01 00:33:32.367710044,E4_Acc,2024-06-27 06:49:39.178930044,-18.0,-63.0,0.0
1904-01-01 00:33:32.398960044,E4_Acc,2024-06-27 06:49:39.210180044,-17.0,-62.0,1.0
1904-01-01 00:33:32.430210044,E4_Acc,2024-06-27 06:49:39.241430044,-18.0,-62.0,0.0
1904-01-01 00:33:32.461470058,E4_Acc,2024-06-27 06:49:39.272690058,-18.0,-62.0,0.0
1904-01-01 00:33:32.492720058,E4_Acc,2024-06-27 06:49:39.303940058,-17.0,-62.0,1.0
1904-01-01 00:33:32.523970058,E4_Acc,2024-06-27 06:49:39.335190058,-17.0,-62.0,0.0
1904-01-01 00:33:32.555220058,E4_Acc,2024-06-27 06:49:39.366440058,-17.0,-62.0,0.0
1904-01-01 00:33:32.586470058,E4_Acc,2024-06-27 06:49:39.397690058,-18.0,-62.0,0.0
1904-01-01 00:33:32.617720058,E4_Acc,2024-06-27 06:49:39.428940058,-17.0,-62.0,0.0
1904-01-01 00:33:32.648970058,E4_Acc,2024-06-27 06:49:39.460190058,-17.0,-62.0,0.0
1904-01-01 00:33:32.680230071,E4_Acc,2024-06-27 06:49:39.491450071,-18.0,-62.0,0.0
1904-01-01 00:33:32.711480071,E4_Acc,2024-06-27 06:49:39.522700071,-18.0,-62.0,0.0
1904-01-01 00:33:32.742730071,E4_Acc,2024-06-27 06:49:39.553950071,-18.0,-62.0,1.0
1904-01-01 00:33:32.773980071,E4_Acc,2024-06-27 06:49:39.585200071,-17.0,-62.0,1.0
1904-01-01 00:33:32.805230071,E4_Acc,2024-06-27 06:49:39.616450071,-19.0,-63.0,1.0
1904-01-01 00:33:32.836480071,E4_Acc,2024-06-27 06:49:39.647700071,-18.0,-62.0,1.0
1904-01-01 00:33:32.867730071,E4_Acc,2024-06-27 06:49:39.678950071,-18.0,-62.0,1.0
1904-01-01 00:33:32.898990085,E4_Acc,2024-06-27 06:49:39.710210085,-18.0,-63.0,0.0
1904-01-01 00:33:32.930240085,E4_Acc,2024-06-27 06:49:39.741460085,-18.0,-63.0,1.0
1904-01-01 00:33:32.961490085,E4_Acc,2024-06-27 06:49:39.772710085,-18.0,-62.0,1.0
1904-01-01 00:33:32.992740085,E4_Acc,2024-06-27 06:49:39.803960085,-17.0,-62.0,1.0
1904-01-01 00:33:33.023990085,E4_Acc,2024-06-27 06:49:39.835210085,-17.0,-61.0,0.0
1904-01-01 00:33:33.055240085,E4_Acc,2024-06-27 06:49:39.866460085,-17.0,-62.0,1.0
1904-01-01 00:33:33.086490085,E4_Acc,2024-06-27 06:49:39.897710085,-17.0,-63.0,1.0
1904-01-01 00:33:33.117750098,E4_Acc,2024-06-27 06:49:39.928970098,-17.0,-63.0,0.0
1904-01-01 00:33:33.149000098,E4_Acc,2024-06-27 06:49:39.960220098,-17.0,-62.0,0.0
1904-01-01 00:33:33.180250098,E4_Acc,2024-06-27 06:49:39.991470098,-17.0,-62.0,0.0
1904-01-01 00:33:33.211500098,E4_Acc,2024-06-27 06:49:40.022720098,-17.0,-62.0,0.0
1904-01-01 00:33:33.242750098,E4_Acc,2024-06-27 06:49:40.053970098,-18.0,-63.0,1.0
1904-01-01 00:33:33.274000098,E4_Acc,2024-06-27 06:49:40.085220098,-18.0,-63.0,1.0
1904-01-01 00:33:33.305250098,E4_Acc,2024-06-27 06:49:40.116470098,-18.0,-62.0,1.0
1904-01-01 00:33:33.336510112,E4_Acc,2024-06-27 06:49:40.147730112,-17.0,-62.0,1.0
1904-01-01 00:33:33.367760112,E4_Acc,2024-06-27 06:49:40.178980112,-17.0,-62.0,1.0
1904-01-01 00:33:33.399010112,E4_Acc,2024-06-27 06:49:40.210230112,-18.0,-62.0,1.0
1904-01-01 00:33:33.430260112,E4_Acc,2024-06-27 06:49:40.241480112,-18.0,-63.0,0.0
1904-01-01 00:33:33.461510112,E4_Acc,2024-06-27 06:49:40.272730112,-17.0,-62.0,1.0
1904-01-01 00:33:33.492760112,E4_Acc,2024-06-27 06:49:40.303980112,-17.0,-62.0,1.0
1904-01-01 00:33:33.524010112,E4_Acc,2024-06-27 06:49:40.335230112,-18.0,-62.0,0.0
1904-01-01 00:33:33.555269887,E4_Acc,2024-06-27 06:49:40.366489887,-18.0,-62.0,1.0
1904-01-01 00:33:33.586519887,E4_Acc,2024-06-27 06:49:40.397739887,-18.0,-62.0,0.0
1904-01-01 00:33:33.617769887,E4_Acc,2024-06-27 06:49:40.428989887,-18.0,-62.0,0.0
1904-01-01 00:33:33.649019887,E4_Acc,2024-06-27 06:49:40.460239887,-18.0,-62.0,0.0
1904-01-01 00:33:33.680269887,E4_Acc,2024-06-27 06:49:40.491489887,-17.0,-62.0,1.0
1904-01-01 00:33:33.711519886,E4_Acc,2024-06-27 06:49:40.522739886,-17.0,-62.0,1.0
1904-01-01 00:33:33.742769887,E4_Acc,2024-06-27 06:49:40.553989887,-18.0,-62.0,1.0
1904-01-01 00:33:33.774029901,E4_Acc,2024-06-27 06:49:40.585249901,-19.0,-63.0,1.0
1904-01-01 00:33:33.805279901,E4_Acc,2024-06-27 06:49:40.616499901,-19.0,-62.0,1.0
1904-01-01 00:33:33.836529901,E4_Acc,2024-06-27 06:49:40.647749901,-19.0,-62.0,1.0
1904-01-01 00:33:33.867779901,E4_Acc,2024-06-27 06:49:40.678999901,-19.0,-62.0,0.0
1904-01-01 00:33:33.899029901,E4_Acc,2024-06-27 06:49:40.710249901,-18.0,-62.0,1.0
1904-01-01 00:33:33.930279901,E4_Acc,2024-06-27 06:49:40.741499901,-19.0,-63.0,1.0
1904-01-01 00:33:33.961529901,E4_Acc,2024-06-27 06:49:40.772749901,-19.0,-63.0,0.0
1904-01-01 00:33:33.992789914,E4_Acc,2024-06-27 06:49:40.804009914,-18.0,-62.0,2.0
1904-01-01 00:33:34.024039914,E4_Acc,2024-06-27 06:49:40.835259914,-17.0,-62.0,1.0
1904-01-01 00:33:34.055289914,E4_Acc,2024-06-27 06:49:40.866509914,-17.0,-62.0,1.0
1904-01-01 00:33:34.086539914,E4_Acc,2024-06-27 06:49:40.897759914,-18.0,-63.0,0.0
1904-01-01 00:33:34.117789914,E4_Acc,2024-06-27 06:49:40.929009914,-18.0,-62.0,1.0
1904-01-01 00:33:34.149039914,E4_Acc,2024-06-27 06:49:40.960259914,-17.0,-62.0,1.0
1904-01-01 00:33:34.180299928,E4_Acc,2024-06-27 06:49:40.991519928,-18.0,-62.0,0.0
1904-01-01 00:33:34.211549928,E4_Acc,2024-06-27 06:49:41.022769928,-18.0,-62.0,1.0
1904-01-01 00:33:34.242799928,E4_Acc,2024-06-27 06:49:41.054019928,-19.0,-63.0,1.0
1904-01-01 00:33:34.274049928,E4_Acc,2024-06-27 06:49:41.085269928,-19.0,-63.0,1.0
1904-01-01 00:33:34.305299928,E4_Acc,2024-06-27 06:49:41.116519928,-17.0,-62.0,1.0
1904-01-01 00:33:34.336549928,E4_Acc,2024-06-27 06:49:41.147769928,-17.0,-61.0,1.0
1904-01-01 00:33:34.367799928,E4_Acc,2024-06-27 06:49:41.179019928,-17.0,-62.0,0.0
1904-01-01 00:33:34.399059942,E4_Acc,2024-06-27 06:49:41.210279942,-18.0,-63.0,0.0
1904-01-01 00:33:34.430309942,E4_Acc,2024-06-27 06:49:41.241529942,-18.0,-63.0,0.0
1904-01-01 00:33:34.461559942,E4_Acc,2024-06-27 06:49:41.272779942,-18.0,-62.0,0.0
1904-01-01 00:33:34.492809942,E4_Acc,2024-06-27 06:49:41.304029942,-18.0,-61.0,1.0
1904-01-01 00:33:34.524059942,E4_Acc,2024-06-27 06:49:41.335279942,-18.0,-62.0,1.0
1904-01-01 00:33:34.555309942,E4_Acc,2024-06-27 06:49:41.366529942,-19.0,-63.0,1.0
1904-01-01 00:33:34.586559942,E4_Acc,2024-06-27 06:49:41.397779942,-18.0,-63.0,1.0
1904-01-01 00:33:34.617819955,E4_Acc,2024-06-27 06:49:41.429039955,-18.0,-63.0,1.0
1904-01-01 00:33:34.649069955,E4_Acc,2024-06-27 06:49:41.460289955,-17.0,-62.0,0.0
1904-01-01 00:33:34.680319955,E4_Acc,2024-06-27 06:49:41.491539955,-17.0,-62.0,1.0
1904-01-01 00:33:34.711569955,E4_Acc,2024-06-27 06:49:41.522789955,-18.0,-63.0,0.0
1904-01-01 00:33:34.742819955,E4_Acc,2024-06-27 06:49:41.554039955,-18.0,-63.0,0.0
1904-01-01 00:33:34.774069955,E4_Acc,2024-06-27 06:49:41.585289955,-18.0,-62.0,1.0
1904-01-01 00:33:34.805319955,E4_Acc,2024-06-27 06:49:41.616539955,-17.0,-62.0,0.0
1904-01-01 00:33:34.836579969,E4_Acc,2024-06-27 06:49:41.647799969,-17.0,-62.0,1.0
1904-01-01 00:33:34.867829969,E4_Acc,2024-06-27 06:49:41.679049969,-19.0,-63.0,0.0
1904-01-01 00:33:34.899079969,E4_Acc,2024-06-27 06:49:41.710299969,-19.0,-63.0,0.0
1904-01-01 00:33:34.930329969,E4_Acc,2024-06-27 06:49:41.741549969,-18.0,-62.0,1.0
1904-01-01 00:33:34.961579969,E4_Acc,2024-06-27 06:49:41.772799969,-17.0,-62.0,1.0
1904-01-01 00:33:34.992829969,E4_Acc,2024-06-27 06:49:41.804049969,-17.0,-62.0,1.0
1904-01-01 00:33:35.024079969,E4_Acc,2024-06-27 06:49:41.835299969,-17.0,-62.0,0.0
1904-01-01 00:33:35.055339982,E4_Acc,2024-06-27 06:49:41.866559982,-18.0,-63.0,0.0
1904-01-01 00:33:35.086589982,E4_Acc,2024-06-27 06:49:41.897809982,-18.0,-63.0,0.0
1904-01-01 00:33:35.117839982,E4_Acc,2024-06-27 06:49:41.929059982,-18.0,-62.0,0.0
1904-01-01 00:33:35.149089982,E4_Acc,2024-06-27 06:49:41.960309982,-18.0,-62.0,1.0
1904-01-01 00:33:35.180339982,E4_Acc,2024-06-27 06:49:41.991559982,-18.0,-62.0,0.0
1904-01-01 00:33:35.211589982,E4_Acc,2024-06-27 06:49:42.022809982,-18.0,-62.0,0.0
1904-01-01 00:33:35.242839982,E4_Acc,2024-06-27 06:49:42.054059982,-18.0,-62.0,1.0
1904-01-01 00:33:35.274099996,E4_Acc,2024-06-27 06:49:42.085319996,-18.0,-62.0,0.0
1904-01-01 00:33:35.305349996,E4_Acc,2024-06-27 06:49:42.116569996,-17.0,-62.0,0.0
1904-01-01 00:33:35.336599996,E4_Acc,2024-06-27 06:49:42.147819996,-18.0,-63.0,0.0
1904-01-01 00:33:35.367849996,E4_Acc,2024-06-27 06:49:42.179069996,-18.0,-63.0,0.0
1904-01-01 00:33:35.399099996,E4_Acc,2024-06-27 06:49:42.210319996,-17.0,-62.0,0.0
1904-01-01 00:33:35.430349996,E4_Acc,2024-06-27 06:49:42.241569996,-17.0,-62.0,0.0
1904-01-01 00:33:35.461599996,E4_Acc,2024-06-27 06:49:42.272819996,-18.0,-62.0,0.0
1904-01-01 00:33:35.492860009,E4_Acc,2024-06-27 06:49:42.304080009,-18.0,-62.0,1.0
1904-01-01 00:33:35.524110009,E4_Acc,2024-06-27 06:49:42.335330009,-17.0,-63.0,1.0
1904-01-01 00:33:35.555360009,E4_Acc,2024-06-27 06:49:42.366580009,-18.0,-62.0,0.0
1904-01-01 00:33:35.586610009,E4_Acc,2024-06-27 06:49:42.397830009,-17.0,-62.0,1.0
1904-01-01 00:33:35.617860009,E4_Acc,2024-06-27 06:49:42.429080009,-18.0,-62.0,1.0
1904-01-01 00:33:35.649110009,E4_Acc,2024-06-27 06:49:42.460330009,-18.0,-62.0,0.0
1904-01-01 00:33:35.680360009,E4_Acc,2024-06-27 06:49:42.491580009,-18.0,-63.0,1.0
1904-01-01 00:33:35.711620023,E4_Acc,2024-06-27 06:49:42.522840023,-18.0,-62.0,1.0
1904-01-01 00:33:35.742870023,E4_Acc,2024-06-27 06:49:42.554090023,-18.0,-62.0,1.0
1904-01-01 00:33:35.774120023,E4_Acc,2024-06-27 06:49:42.585340023,-17.0,-61.0,1.0
1904-01-01 00:33:35.805370023,E4_Acc,2024-06-27 06:49:42.616590023,-18.0,-63.0,0.0
1904-01-01 00:33:35.836620023,E4_Acc,2024-06-27 06:49:42.647840023,-18.0,-63.0,0.0
1904-01-01 00:33:35.867870023,E4_Acc,2024-06-27 06:49:42.679090023,-18.0,-62.0,0.0
1904-01-01 00:33:35.899120023,E4_Acc,2024-06-27 06:49:42.710340023,-17.0,-62.0,1.0
1904-01-01 00:33:35.930380037,E4_Acc,2024-06-27 06:49:42.741600037,-17.0,-62.0,0.0
1904-01-01 00:33:35.961630037,E4_Acc,2024-06-27 06:49:42.772850037,-18.0,-62.0,1.0
1904-01-01 00:33:35.992880037,E4_Acc,2024-06-27 06:49:42.804100037,-18.0,-63.0,0.0
1904-01-01 00:33:36.024130037,E4_Acc,2024-06-27 06:49:42.835350037,-18.0,-62.0,1.0
1904-01-01 00:33:36.055380037,E4_Acc,2024-06-27 06:49:42.866600037,-18.0,-63.0,1.0
1904-01-01 00:33:36.086630037,E4_Acc,2024-06-27 06:49:42.897850037,-18.0,-63.0,1.0
1904-01-01 00:33:36.117880037,E4_Acc,2024-06-27 06:49:42.929100037,-17.0,-62.0,1.0
1904-01-01 00:33:36.149140050,E4_Acc,2024-06-27 06:49:42.960360050,-18.0,-62.0,1.0
1904-01-01 00:33:36.180390050,E4_Acc,2024-06-27 06:49:42.991610050,-18.0,-62.0,1.0
1904-01-01 00:33:36.211640050,E4_Acc,2024-06-27 06:49:43.022860050,-19.0,-62.0,1.0
1904-01-01 00:33:36.242890050,E4_Acc,2024-06-27 06:49:43.054110050,-19.0,-62.0,1.0
1904-01-01 00:33:36.274140050,E4_Acc,2024-06-27 06:49:43.085360050,-19.0,-62.0,1.0
1904-01-01 00:33:36.305390050,E4_Acc,2024-06-27 06:49:43.116610050,-18.0,-62.0,1.0
1904-01-01 00:33:36.336640050,E4_Acc,2024-06-27 06:49:43.147860050,-17.0,-62.0,0.0
1904-01-01 00:33:36.367900064,E4_Acc,2024-06-27 06:49:43.179120064,-17.0,-62.0,0.0
1904-01-01 00:33:36.399150064,E4_Acc,2024-06-27 06:49:43.210370064,-18.0,-62.0,0.0
1904-01-01 00:33:36.430400064,E4_Acc,2024-06-27 06:49:43.241620064,-18.0,-62.0,0.0
1904-01-01 00:33:36.461650064,E4_Acc,2024-06-27 06:49:43.272870064,-18.0,-62.0,1.0
1904-01-01 00:33:36.492900064,E4_Acc,2024-06-27 06:49:43.304120064,-18.0,-62.0,1.0
1904-01-01 00:33:36.524150064,E4_Acc,2024-06-27 06:49:43.335370064,-18.0,-62.0,0.0
1904-01-01 00:33:36.555410077,E4_Acc,2024-06-27 06:49:43.366630077,-18.0,-62.0,1.0
1904-01-01 00:33:36.586660077,E4_Acc,2024-06-27 06:49:43.397880077,-18.0,-62.0,1.0
1904-01-01 00:33:36.617910077,E4_Acc,2024-06-27 06:49:43.429130077,-19.0,-63.0,1.0
1904-01-01 00:33:36.649160077,E4_Acc,2024-06-27 06:49:43.460380077,-19.0,-63.0,1.0
1904-01-01 00:33:36.680410077,E4_Acc,2024-06-27 06:49:43.491630077,-19.0,-62.0,0.0
1904-01-01 00:33:36.711660077,E4_Acc,2024-06-27 06:49:43.522880077,-18.0,-62.0,1.0
1904-01-01 00:33:36.742910077,E4_Acc,2024-06-27 06:49:43.554130077,-18.0,-62.0,1.0
1904-01-01 00:33:36.774170091,E4_Acc,2024-06-27 06:49:43.585390091,-18.0,-62.0,1.0
1904-01-01 00:33:36.805420091,E4_Acc,2024-06-27 06:49:43.616640091,-18.0,-63.0,1.0
1904-01-01 00:33:36.836670091,E4_Acc,2024-06-27 06:49:43.647890091,-18.0,-62.0,1.0
1904-01-01 00:33:36.867920091,E4_Acc,2024-06-27 06:49:43.679140091,-18.0,-62.0,0.0
1904-01-01 00:33:36.899170091,E4_Acc,2024-06-27 06:49:43.710390091,-18.0,-62.0,1.0
1904-01-01 00:33:36.930420091,E4_Acc,2024-06-27 06:49:43.741640091,-18.0,-62.0,0.0
1904-01-01 00:33:36.961670091,E4_Acc,2024-06-27 06:49:43.772890091,-19.0,-62.0,1.0
1904-01-01 00:33:36.992930105,E4_Acc,2024-06-27 06:49:43.804150105,-19.0,-62.0,1.0
1904-01-01 00:33:37.024180105,E4_Acc,2024-06-27 06:49:43.835400105,-19.0,-62.0,1.0
1904-01-01 00:33:37.055430105,E4_Acc,2024-06-27 06:49:43.866650105,-19.0,-62.0,1.0
1904-01-01 00:33:37.086680105,E4_Acc,2024-06-27 06:49:43.897900105,-17.0,-62.0,1.0
1904-01-01 00:33:37.117930105,E4_Acc,2024-06-27 06:49:43.929150105,-17.0,-62.0,1.0
1904-01-01 00:33:37.149180105,E4_Acc,2024-06-27 06:49:43.960400105,-18.0,-62.0,0.0
1904-01-01 00:33:37.180430105,E4_Acc,2024-06-27 06:49:43.991650105,-18.0,-63.0,1.0
1904-01-01 00:33:37.211690118,E4_Acc,2024-06-27 06:49:44.022910118,-19.0,-62.0,1.0
1904-01-01 00:33:37.242940118,E4_Acc,2024-06-27 06:49:44.054160118,-19.0,-62.0,1.0
1904-01-01 00:33:37.274190118,E4_Acc,2024-06-27 06:49:44.085410118,-19.0,-62.0,1.0
1904-01-01 00:33:37.305440118,E4_Acc,2024-06-27 06:49:44.116660118,-18.0,-62.0,1.0
1904-01-01 00:33:37.336690118,E4_Acc,2024-06-27 06:49:44.147910118,-18.0,-62.0,2.0
1904-01-01 00:33:37.367940118,E4_Acc,2024-06-27 06:49:44.179160118,-17.0,-62.0,1.0
1904-01-01 00:33:37.399190118,E4_Acc,2024-06-27 06:49:44.210410118,-18.0,-63.0,0.0
1904-01-01 00:33:37.430449893,E4_Acc,2024-06-27 06:49:44.241669893,-18.0,-63.0,0.0
1904-01-01 00:33:37.461699893,E4_Acc,2024-06-27 06:49:44.272919893,-18.0,-63.0,1.0
1904-01-01 00:33:37.492949893,E4_Acc,2024-06-27 06:49:44.304169893,-17.0,-62.0,1.0
1904-01-01 00:33:37.524199893,E4_Acc,2024-06-27 06:49:44.335419893,-17.0,-61.0,1.0
1904-01-01 00:33:37.555449893,E4_Acc,2024-06-27 06:49:44.366669893,-17.0,-63.0,1.0
1904-01-01 00:33:37.586699893,E4_Acc,2024-06-27 06:49:44.397919893,-18.0,-63.0,1.0
1904-01-01 00:33:37.617949893,E4_Acc,2024-06-27 06:49:44.429169893,-18.0,-63.0,0.0
1904-01-01 00:33:37.649209907,E4_Acc,2024-06-27 06:49:44.460429907,-18.0,-61.0,1.0
1904-01-01 00:33:37.680459907,E4_Acc,2024-06-27 06:49:44.491679907,-18.0,-61.0,1.0
1904-01-01 00:33:37.711709907,E4_Acc,2024-06-27 06:49:44.522929907,-18.0,-62.0,1.0
1904-01-01 00:33:37.742959907,E4_Acc,2024-06-27 06:49:44.554179907,-17.0,-62.0,1.0
1904-01-01 00:33:37.774209907,E4_Acc,2024-06-27 06:49:44.585429907,-18.0,-63.0,1.0
1904-01-01 00:33:37.805459907,E4_Acc,2024-06-27 06:49:44.616679907,-18.0,-63.0,1.0
1904-01-01 00:33:37.836709907,E4_Acc,2024-06-27 06:49:44.647929907,-18.0,-62.0,1.0
1904-01-01 00:33:37.867969920,E4_Acc,2024-06-27 06:49:44.679189920,-17.0,-61.0,1.0
1904-01-01 00:33:37.899219920,E4_Acc,2024-06-27 06:49:44.710439920,-17.0,-62.0,0.0
1904-01-01 00:33:37.930469920,E4_Acc,2024-06-27 06:49:44.741689920,-18.0,-62.0,1.0
1904-01-01 00:33:37.961719920,E4_Acc,2024-06-27 06:49:44.772939920,-17.0,-63.0,1.0
1904-01-01 00:33:37.992969920,E4_Acc,2024-06-27 06:49:44.804189920,-17.0,-63.0,0.0
1904-01-01 00:33:38.024219920,E4_Acc,2024-06-27 06:49:44.835439920,-17.0,-63.0,0.0
1904-01-01 00:33:38.055469920,E4_Acc,2024-06-27 06:49:44.866689920,-17.0,-63.0,0.0
1904-01-01 00:33:38.086729934,E4_Acc,2024-06-27 06:49:44.897949934,-17.0,-62.0,1.0
1904-01-01 00:33:38.117979934,E4_Acc,2024-06-27 06:49:44.929199934,-18.0,-62.0,1.0
1904-01-01 00:33:38.149229934,E4_Acc,2024-06-27 06:49:44.960449934,-18.0,-62.0,1.0
1904-01-01 00:33:38.180479934,E4_Acc,2024-06-27 06:49:44.991699934,-19.0,-62.0,1.0
1904-01-01 00:33:38.211729934,E4_Acc,2024-06-27 06:49:45.022949934,-19.0,-62.0,1.0
1904-01-01 00:33:38.242979934,E4_Acc,2024-06-27 06:49:45.054199934,-18.0,-62.0,1.0
1904-01-01 00:33:38.274229934,E4_Acc,2024-06-27 06:49:45.085449934,-18.0,-62.0,1.0
1904-01-01 00:33:38.305489948,E4_Acc,2024-06-27 06:49:45.116709948,-18.0,-62.0,1.0
1904-01-01 00:33:38.336739948,E4_Acc,2024-06-27 06:49:45.147959948,-19.0,-62.0,1.0
1904-01-01 00:33:38.367989948,E4_Acc,2024-06-27 06:49:45.179209948,-18.0,-62.0,1.0
1904-01-01 00:33:38.399239948,E4_Acc,2024-06-27 06:49:45.210459948,-18.0,-62.0,1.0
1904-01-01 00:33:38.430489948,E4_Acc,2024-06-27 06:49:45.241709948,-17.0,-62.0,1.0
1904-01-01 00:33:38.461739948,E4_Acc,2024-06-27 06:49:45.272959948,-17.0,-62.0,0.0
1904-01-01 00:33:38.492989948,E4_Acc,2024-06-27 06:49:45.304209948,-17.0,-63.0,0.0
1904-01-01 00:33:38.524249961,E4_Acc,2024-06-27 06:49:45.335469961,-18.0,-62.0,1.0
1904-01-01 00:33:38.555499961,E4_Acc,2024-06-27 06:49:45.366719961,-18.0,-62.0,0.0
1904-01-01 00:33:38.586749961,E4_Acc,2024-06-27 06:49:45.397969961,-18.0,-61.0,1.0
1904-01-01 00:33:38.617999961,E4_Acc,2024-06-27 06:49:45.429219961,-18.0,-62.0,1.0
1904-01-01 00:33:38.649249961,E4_Acc,2024-06-27 06:49:45.460469961,-19.0,-63.0,1.0
1904-01-01 00:33:38.680499961,E4_Acc,2024-06-27 06:49:45.491719961,-19.0,-63.0,1.0
1904-01-01 00:33:38.711749961,E4_Acc,2024-06-27 06:49:45.522969961,-18.0,-62.0,1.0
1904-01-01 00:33:38.743009975,E4_Acc,2024-06-27 06:49:45.554229975,-16.0,-62.0,1.0
1904-01-01 00:33:38.774259975,E4_Acc,2024-06-27 06:49:45.585479975,-17.0,-62.0,1.0
1904-01-01 00:33:38.805509975,E4_Acc,2024-06-27 06:49:45.616729975,-17.0,-63.0,0.0
1904-01-01 00:33:38.836759975,E4_Acc,2024-06-27 06:49:45.647979975,-18.0,-63.0,0.0
1904-01-01 00:33:38.868009975,E4_Acc,2024-06-27 06:49:45.679229975,-18.0,-63.0,0.0
1904-01-01 00:33:38.899259975,E4_Acc,2024-06-27 06:49:45.710479975,-18.0,-62.0,1.0
1904-01-01 00:33:38.930509975,E4_Acc,2024-06-27 06:49:45.741729975,-18.0,-61.0,1.0
1904-01-01 00:33:38.961769988,E4_Acc,2024-06-27 06:49:45.772989988,-18.0,-63.0,1.0
1904-01-01 00:33:38.993019988,E4_Acc,2024-06-27 06:49:45.804239988,-18.0,-62.0,1.0
1904-01-01 00:33:39.024269988,E4_Acc,2024-06-27 06:49:45.835489988,-18.0,-62.0,1.0
1904-01-01 00:33:39.055519988,E4_Acc,2024-06-27 06:49:45.866739988,-17.0,-62.0,1.0
1904-01-01 00:33:39.086769988,E4_Acc,2024-06-27 06:49:45.897989988,-17.0,-62.0,1.0
1904-01-01 00:33:39.118019988,E4_Acc,2024-06-27 06:49:45.929239988,-17.0,-62.0,1.0
1904-01-01 00:33:39.149280002,E4_Acc,2024-06-27 06:49:45.960500002,-17.0,-62.0,1.0
1904-01-01 00:33:39.180530002,E4_Acc,2024-06-27 06:49:45.991750002,-17.0,-63.0,0.0
1904-01-01 00:33:39.211780002,E4_Acc,2024-06-27 06:49:46.023000002,-17.0,-62.0,0.0
1904-01-01 00:33:39.243030002,E4_Acc,2024-06-27 06:49:46.054250002,-17.0,-62.0,1.0
1904-01-01 00:33:39.274280002,E4_Acc,2024-06-27 06:49:46.085500002,-18.0,-62.0,1.0
1904-01-01 00:33:39.305530002,E4_Acc,2024-06-27 06:49:46.116750002,-18.0,-62.0,1.0
1904-01-01 00:33:39.336780002,E4_Acc,2024-06-27 06:49:46.148000002,-18.0,-63.0,1.0
1904-01-01 00:33:39.368040015,E4_Acc,2024-06-27 06:49:46.179260015,-17.0,-62.0,1.0
1904-01-01 00:33:39.399290015,E4_Acc,2024-06-27 06:49:46.210510015,-17.0,-62.0,1.0
1904-01-01 00:33:39.430540015,E4_Acc,2024-06-27 06:49:46.241760015,-17.0,-62.0,1.0
1904-01-01 00:33:39.461790015,E4_Acc,2024-06-27 06:49:46.273010015,-17.0,-62.0,1.0
1904-01-01 00:33:39.493040015,E4_Acc,2024-06-27 06:49:46.304260015,-18.0,-63.0,0.0
1904-01-01 00:33:39.524290015,E4_Acc,2024-06-27 06:49:46.335510015,-18.0,-62.0,0.0
1904-01-01 00:33:39.555540015,E4_Acc,2024-06-27 06:49:46.366760015,-19.0,-62.0,1.0
1904-01-01 00:33:39.586800029,E4_Acc,2024-06-27 06:49:46.398020029,-18.0,-62.0,1.0
1904-01-01 00:33:39.618050029,E4_Acc,2024-06-27 06:49:46.429270029,-18.0,-62.0,1.0
1904-01-01 00:33:39.649300029,E4_Acc,2024-06-27 06:49:46.460520029,-18.0,-62.0,1.0
1904-01-01 00:33:39.680550029,E4_Acc,2024-06-27 06:49:46.491770029,-17.0,-62.0,2.0
1904-01-01 00:33:39.711800029,E4_Acc,2024-06-27 06:49:46.523020029,-18.0,-62.0,1.0
1904-01-01 00:33:39.743050029,E4_Acc,2024-06-27 06:49:46.554270029,-18.0,-63.0,0.0
1904-01-01 00:33:39.774300029,E4_Acc,2024-06-27 06:49:46.585520029,-17.0,-62.0,1.0
1904-01-01 00:33:39.805560043,E4_Acc,2024-06-27 06:49:46.616780043,-17.0,-62.0,1.0
1904-01-01 00:33:39.836810043,E4_Acc,2024-06-27 06:49:46.648030043,-17.0,-62.0,1.0
1904-01-01 00:33:39.868060043,E4_Acc,2024-06-27 06:49:46.679280043,-17.0,-62.0,1.0
1904-01-01 00:33:39.899310043,E4_Acc,2024-06-27 06:49:46.710530043,-17.0,-62.0,1.0
1904-01-01 00:33:39.930560043,E4_Acc,2024-06-27 06:49:46.741780043,-18.0,-63.0,1.0
1904-01-01 00:33:39.961810043,E4_Acc,2024-06-27 06:49:46.773030043,-18.0,-63.0,0.0
1904-01-01 00:33:39.993060043,E4_Acc,2024-06-27 06:49:46.804280043,-17.0,-62.0,1.0
1904-01-01 00:33:40.024320056,E4_Acc,2024-06-27 06:49:46.835540056,-17.0,-61.0,1.0
1904-01-01 00:33:40.055570056,E4_Acc,2024-06-27 06:49:46.866790056,-17.0,-63.0,1.0
1904-01-01 00:33:40.086820056,E4_Acc,2024-06-27 06:49:46.898040056,-18.0,-63.0,1.0
1904-01-01 00:33:40.118070056,E4_Acc,2024-06-27 06:49:46.929290056,-18.0,-63.0,1.0
1904-01-01 00:33:40.149320056,E4_Acc,2024-06-27 06:49:46.960540056,-17.0,-62.0,1.0
1904-01-01 00:33:40.180570056,E4_Acc,2024-06-27 06:49:46.991790056,-16.0,-62.0,1.0
1904-01-01 00:33:40.211820056,E4_Acc,2024-06-27 06:49:47.023040056,-17.0,-63.0,1.0
1904-01-01 00:33:40.243080070,E4_Acc,2024-06-27 06:49:47.054300070,-18.0,-63.0,1.0
1904-01-01 00:33:40.274330070,E4_Acc,2024-06-27 06:49:47.085550070,-18.0,-62.0,1.0
1904-01-01 00:33:40.305580070,E4_Acc,2024-06-27 06:49:47.116800070,-17.0,-62.0,1.0
1904-01-01 00:33:40.336830070,E4_Acc,2024-06-27 06:49:47.148050070,-16.0,-62.0,1.0
1904-01-01 00:33:40.368080070,E4_Acc,2024-06-27 06:49:47.179300070,-17.0,-62.0,1.0
1904-01-01 00:33:40.399330070,E4_Acc,2024-06-27 06:49:47.210550070,-18.0,-62.0,0.0
1904-01-01 00:33:40.430580070,E4_Acc,2024-06-27 06:49:47.241800070,-18.0,-62.0,0.0
1904-01-01 00:33:40.461840083,E4_Acc,2024-06-27 06:49:47.273060083,-17.0,-62.0,1.0
1904-01-01 00:33:40.493090083,E4_Acc,2024-06-27 06:49:47.304310083,-17.0,-63.0,1.0
1904-01-01 00:33:40.524340083,E4_Acc,2024-06-27 06:49:47.335560083,-17.0,-63.0,1.0
1904-01-01 00:33:40.555590083,E4_Acc,2024-06-27 06:49:47.366810083,-18.0,-62.0,1.0
1904-01-01 00:33:40.586840083,E4_Acc,2024-06-27 06:49:47.398060083,-17.0,-62.0,1.0
1904-01-01 00:33:40.618090083,E4_Acc,2024-06-27 06:49:47.429310083,-18.0,-62.0,1.0
1904-01-01 00:33:40.649340083,E4_Acc,2024-06-27 06:49:47.460560083,-18.0,-62.0,1.0
1904-01-01 00:33:40.680600097,E4_Acc,2024-06-27 06:49:47.491820097,-18.0,-62.0,1.0
1904-01-01 00:33:40.711850096,E4_Acc,2024-06-27 06:49:47.523070096,-18.0,-63.0,1.0
1904-01-01 00:33:40.743100097,E4_Acc,2024-06-27 06:49:47.554320097,-18.0,-63.0,1.0
1904-01-01 00:33:40.774350097,E4_Acc,2024-06-27 06:49:47.585570097,-18.0,-62.0,1.0
1904-01-01 00:33:40.805600097,E4_Acc,2024-06-27 06:49:47.616820097,-17.0,-62.0,1.0
1904-01-01 00:33:40.836850097,E4_Acc,2024-06-27 06:49:47.648070097,-17.0,-61.0,1.0
1904-01-01 00:33:40.868100097,E4_Acc,2024-06-27 06:49:47.679320097,-17.0,-62.0,1.0
1904-01-01 00:33:40.899360111,E4_Acc,2024-06-27 06:49:47.710580111,-17.0,-63.0,1.0
1904-01-01 00:33:40.930610111,E4_Acc,2024-06-27 06:49:47.741830111,-18.0,-63.0,1.0
1904-01-01 00:33:40.961860111,E4_Acc,2024-06-27 06:49:47.773080111,-17.0,-62.0,0.0
1904-01-01 00:33:40.993110111,E4_Acc,2024-06-27 06:49:47.804330111,-17.0,-61.0,0.0
1904-01-01 00:33:41.024360111,E4_Acc,2024-06-27 06:49:47.835580111,-16.0,-62.0,2.0
1904-01-01 00:33:41.055610111,E4_Acc,2024-06-27 06:49:47.866830111,-17.0,-62.0,1.0
1904-01-01 00:33:41.086860111,E4_Acc,2024-06-27 06:49:47.898080111,-17.0,-63.0,1.0
1904-01-01 00:33:41.118119886,E4_Acc,2024-06-27 06:49:47.929339886,-18.0,-63.0,0.0
1904-01-01 00:33:41.149369886,E4_Acc,2024-06-27 06:49:47.960589886,-18.0,-63.0,1.0
1904-01-01 00:33:41.180619886,E4_Acc,2024-06-27 06:49:47.991839886,-16.0,-62.0,1.0
1904-01-01 00:33:41.211869886,E4_Acc,2024-06-27 06:49:48.023089886,-16.0,-61.0,2.0
1904-01-01 00:33:41.243119886,E4_Acc,2024-06-27 06:49:48.054339886,-19.0,-62.0,2.0
1904-01-01 00:33:41.274369886,E4_Acc,2024-06-27 06:49:48.085589886,-17.0,-63.0,1.0
1904-01-01 00:33:41.305619886,E4_Acc,2024-06-27 06:49:48.116839886,-17.0,-63.0,1.0
1904-01-01 00:33:41.336879899,E4_Acc,2024-06-27 06:49:48.148099899,-17.0,-62.0,1.0
1904-01-01 00:33:41.368129899,E4_Acc,2024-06-27 06:49:48.179349899,-16.0,-62.0,0.0
1904-01-01 00:33:41.399379899,E4_Acc,2024-06-27 06:49:48.210599899,-17.0,-63.0,0.0
1904-01-01 00:33:41.430629899,E4_Acc,2024-06-27 06:49:48.241849899,-17.0,-63.0,0.0
1904-01-01 00:33:41.461879899,E4_Acc,2024-06-27 06:49:48.273099899,-18.0,-63.0,0.0
1904-01-01 00:33:41.493129899,E4_Acc,2024-06-27 06:49:48.304349899,-18.0,-62.0,1.0
1904-01-01 00:33:41.524389913,E4_Acc,2024-06-27 06:49:48.335609913,-17.0,-62.0,2.0
1904-01-01 00:33:41.555639913,E4_Acc,2024-06-27 06:49:48.366859913,-18.0,-62.0,2.0
1904-01-01 00:33:41.586889913,E4_Acc,2024-06-27 06:49:48.398109913,-18.0,-63.0,1.0
1904-01-01 00:33:41.618139913,E4_Acc,2024-06-27 06:49:48.429359913,-18.0,-63.0,1.0
1904-01-01 00:33:41.649389913,E4_Acc,2024-06-27 06:49:48.460609913,-17.0,-62.0,1.0
1904-01-01 00:33:41.680639913,E4_Acc,2024-06-27 06:49:48.491859913,-17.0,-62.0,1.0
1904-01-01 00:33:41.711889913,E4_Acc,2024-06-27 06:49:48.523109913,-17.0,-62.0,1.0
1904-01-01 00:33:41.743149926,E4_Acc,2024-06-27 06:49:48.554369926,-18.0,-63.0,0.0
1904-01-01 00:33:41.774399926,E4_Acc,2024-06-27 06:49:48.585619926,-18.0,-63.0,1.0
1904-01-01 00:33:41.805649926,E4_Acc,2024-06-27 06:49:48.616869926,-17.0,-62.0,1.0
1904-01-01 00:33:41.836899926,E4_Acc,2024-06-27 06:49:48.648119926,-17.0,-62.0,1.0
1904-01-01 00:33:41.868149926,E4_Acc,2024-06-27 06:49:48.679369926,-17.0,-62.0,1.0
1904-01-01 00:33:41.899399926,E4_Acc,2024-06-27 06:49:48.710619926,-16.0,-63.0,1.0
1904-01-01 00:33:41.930649926,E4_Acc,2024-06-27 06:49:48.741869926,-17.0,-63.0,1.0
1904-01-01 00:33:41.961909940,E4_Acc,2024-06-27 06:49:48.773129940,-17.0,-63.0,0.0
1904-01-01 00:33:41.993159940,E4_Acc,2024-06-27 06:49:48.804379940,-17.0,-62.0,1.0
1904-01-01 00:33:42.024409940,E4_Acc,2024-06-27 06:49:48.835629940,-17.0,-62.0,1.0
1904-01-01 00:33:42.055659940,E4_Acc,2024-06-27 06:49:48.866879940,-18.0,-62.0,1.0
1904-01-01 00:33:42.086909940,E4_Acc,2024-06-27 06:49:48.898129940,-18.0,-63.0,1.0
1904-01-01 00:33:42.118159940,E4_Acc,2024-06-27 06:49:48.929379940,-17.0,-63.0,1.0
1904-01-01 00:33:42.149409940,E4_Acc,2024-06-27 06:49:48.960629940,-17.0,-62.0,2.0
1904-01-01 00:33:42.180669954,E4_Acc,2024-06-27 06:49:48.991889954,-17.0,-62.0,1.0
1904-01-01 00:33:42.211919954,E4_Acc,2024-06-27 06:49:49.023139954,-18.0,-62.0,1.0
1904-01-01 00:33:42.243169954,E4_Acc,2024-06-27 06:49:49.054389954,-18.0,-62.0,1.0
1904-01-01 00:33:42.274419954,E4_Acc,2024-06-27 06:49:49.085639954,-18.0,-63.0,1.0
1904-01-01 00:33:42.305669954,E4_Acc,2024-06-27 06:49:49.116889954,-17.0,-62.0,1.0
1904-01-01 00:33:42.336919954,E4_Acc,2024-06-27 06:49:49.148139954,-17.0,-62.0,1.0
1904-01-01 00:33:42.368169954,E4_Acc,2024-06-27 06:49:49.179389954,-17.0,-62.0,1.0
1904-01-01 00:33:42.399429967,E4_Acc,2024-06-27 06:49:49.210649967,-17.0,-62.0,1.0
1904-01-01 00:33:42.430679967,E4_Acc,2024-06-27 06:49:49.241899967,-18.0,-63.0,1.0
1904-01-01 00:33:42.461929967,E4_Acc,2024-06-27 06:49:49.273149967,-18.0,-63.0,1.0
1904-01-01 00:33:42.493179967,E4_Acc,2024-06-27 06:49:49.304399967,-17.0,-62.0,2.0
1904-01-01 00:33:42.524429967,E4_Acc,2024-06-27 06:49:49.335649967,-17.0,-62.0,1.0
1904-01-01 00:33:42.555679967,E4_Acc,2024-06-27 06:49:49.366899967,-17.0,-62.0,1.0
1904-01-01 00:33:42.586929967,E4_Acc,2024-06-27 06:49:49.398149967,-17.0,-62.0,1.0
1904-01-01 00:33:42.618189981,E4_Acc,2024-06-27 06:49:49.429409981,-17.0,-63.0,1.0
1904-01-01 00:33:42.649439981,E4_Acc,2024-06-27 06:49:49.460659981,-17.0,-63.0,1.0
1904-01-01 00:33:42.680689981,E4_Acc,2024-06-27 06:49:49.491909981,-18.0,-63.0,1.0
1904-01-01 00:33:42.711939981,E4_Acc,2024-06-27 06:49:49.523159981,-18.0,-62.0,1.0
1904-01-01 00:33:42.743189981,E4_Acc,2024-06-27 06:49:49.554409981,-18.0,-62.0,1.0
1904-01-01 00:33:42.774439981,E4_Acc,2024-06-27 06:49:49.585659981,-18.0,-62.0,1.0
1904-01-01 00:33:42.805689981,E4_Acc,2024-06-27 06:49:49.616909981,-18.0,-63.0,1.0
1904-01-01 00:33:42.836949994,E4_Acc,2024-06-27 06:49:49.648169994,-17.0,-62.0,2.0
1904-01-01 00:33:42.868199994,E4_Acc,2024-06-27 06:49:49.679419994,-17.0,-62.0,1.0
1904-01-01 00:33:42.899449994,E4_Acc,2024-06-27 06:49:49.710669994,-17.0,-62.0,0.0
1904-01-01 00:33:42.930699994,E4_Acc,2024-06-27 06:49:49.741919994,-17.0,-63.0,1.0
1904-01-01 00:33:42.961949994,E4_Acc,2024-06-27 06:49:49.773169994,-18.0,-63.0,1.0
1904-01-01 00:33:42.993199994,E4_Acc,2024-06-27 06:49:49.804419994,-18.0,-62.0,1.0
1904-01-01 00:33:43.024449994,E4_Acc,2024-06-27 06:49:49.835669994,-17.0,-62.0,1.0
1904-01-01 00:33:43.055710008,E4_Acc,2024-06-27 06:49:49.866930008,-18.0,-62.0,0.0
1904-01-01 00:33:43.086960008,E4_Acc,2024-06-27 06:49:49.898180008,-16.0,-62.0,2.0
1904-01-01 00:33:43.118210008,E4_Acc,2024-06-27 06:49:49.929430008,-17.0,-62.0,1.0
1904-01-01 00:33:43.149460008,E4_Acc,2024-06-27 06:49:49.960680008,-17.0,-63.0,0.0
1904-01-01 00:33:43.180710008,E4_Acc,2024-06-27 06:49:49.991930008,-17.0,-62.0,1.0
1904-01-01 00:33:43.211960008,E4_Acc,2024-06-27 06:49:50.023180008,-17.0,-62.0,1.0
1904-01-01 00:33:43.243210008,E4_Acc,2024-06-27 06:49:50.054430008,-18.0,-62.0,1.0
1904-01-01 00:33:43.274470022,E4_Acc,2024-06-27 06:49:50.085690022,-18.0,-62.0,1.0
1904-01-01 00:33:43.305720022,E4_Acc,2024-06-27 06:49:50.116940022,-18.0,-62.0,1.0
1904-01-01 00:33:43.336970022,E4_Acc,2024-06-27 06:49:50.148190022,-18.0,-63.0,2.0
1904-01-01 00:33:43.368220022,E4_Acc,2024-06-27 06:49:50.179440022,-18.0,-63.0,1.0
1904-01-01 00:33:43.399470022,E4_Acc,2024-06-27 06:49:50.210690022,-17.0,-62.0,1.0
1904-01-01 00:33:43.430720022,E4_Acc,2024-06-27 06:49:50.241940022,-17.0,-62.0,2.0
1904-01-01 00:33:43.461970022,E4_Acc,2024-06-27 06:49:50.273190022,-17.0,-62.0,1.0
1904-01-01 00:33:43.493230035,E4_Acc,2024-06-27 06:49:50.304450035,-17.0,-62.0,1.0
1904-01-01 00:33:43.524480035,E4_Acc,2024-06-27 06:49:50.335700035,-18.0,-62.0,1.0
1904-01-01 00:33:43.555730035,E4_Acc,2024-06-27 06:49:50.366950035,-18.0,-63.0,1.0
1904-01-01 00:33:43.586980035,E4_Acc,2024-06-27 06:49:50.398200035,-17.0,-62.0,1.0
1904-01-01 00:33:43.618230035,E4_Acc,2024-06-27 06:49:50.429450035,-17.0,-62.0,1.0
1904-01-01 00:33:43.649480035,E4_Acc,2024-06-27 06:49:50.460700035,-17.0,-62.0,1.0
1904-01-01 00:33:43.680730035,E4_Acc,2024-06-27 06:49:50.491950035,-17.0,-62.0,1.0
1904-01-01 00:33:43.711990049,E4_Acc,2024-06-27 06:49:50.523210049,-18.0,-62.0,1.0
1904-01-01 00:33:43.743240049,E4_Acc,2024-06-27 06:49:50.554460049,-18.0,-62.0,1.0
1904-01-01 00:33:43.774490049,E4_Acc,2024-06-27 06:49:50.585710049,-18.0,-63.0,1.0
1904-01-01 00:33:43.805740049,E4_Acc,2024-06-27 06:49:50.616960049,-18.0,-62.0,1.0
1904-01-01 00:33:43.836990049,E4_Acc,2024-06-27 06:49:50.648210049,-17.0,-62.0,1.0
1904-01-01 00:33:43.868240049,E4_Acc,2024-06-27 06:49:50.679460049,-17.0,-62.0,1.0
1904-01-01 00:33:43.899500062,E4_Acc,2024-06-27 06:49:50.710720062,-17.0,-62.0,1.0
1904-01-01 00:33:43.930750062,E4_Acc,2024-06-27 06:49:50.741970062,-18.0,-63.0,1.0
1904-01-01 00:33:43.962000062,E4_Acc,2024-06-27 06:49:50.773220062,-19.0,-63.0,1.0
1904-01-01 00:33:43.993250062,E4_Acc,2024-06-27 06:49:50.804470062,-19.0,-63.0,1.0
1904-01-01 00:33:44.024500062,E4_Acc,2024-06-27 06:49:50.835720062,-17.0,-61.0,2.0
1904-01-01 00:33:44.055750062,E4_Acc,2024-06-27 06:49:50.866970062,-17.0,-62.0,1.0
1904-01-01 00:33:44.087000062,E4_Acc,2024-06-27 06:49:50.898220062,-18.0,-63.0,1.0
1904-01-01 00:33:44.118260076,E4_Acc,2024-06-27 06:49:50.929480076,-19.0,-64.0,1.0
1904-01-01 00:33:44.149510076,E4_Acc,2024-06-27 06:49:50.960730076,-18.0,-64.0,0.0
1904-01-01 00:33:44.180760076,E4_Acc,2024-06-27 06:49:50.991980076,-17.0,-61.0,1.0
1904-01-01 00:33:44.212010076,E4_Acc,2024-06-27 06:49:51.023230076,-17.0,-61.0,1.0
1904-01-01 00:33:44.243260076,E4_Acc,2024-06-27 06:49:51.054480076,-18.0,-62.0,1.0
1904-01-01 00:33:44.274510076,E4_Acc,2024-06-27 06:49:51.085730076,-18.0,-63.0,2.0
1904-01-01 00:33:44.305760076,E4_Acc,2024-06-27 06:49:51.116980076,-19.0,-62.0,1.0
1904-01-01 00:33:44.337020089,E4_Acc,2024-06-27 06:49:51.148240089,-17.0,-62.0,1.0
1904-01-01 00:33:44.368270089,E4_Acc,2024-06-27 06:49:51.179490089,-18.0,-62.0,1.0
1904-01-01 00:33:44.399520089,E4_Acc,2024-06-27 06:49:51.210740089,-19.0,-62.0,1.0
1904-01-01 00:33:44.430770089,E4_Acc,2024-06-27 06:49:51.241990089,-19.0,-62.0,1.0
1904-01-01 00:33:44.462020089,E4_Acc,2024-06-27 06:49:51.273240089,-18.0,-62.0,1.0
1904-01-01 00:33:44.493270089,E4_Acc,2024-06-27 06:49:51.304490089,-17.0,-62.0,1.0
1904-01-01 00:33:44.524520089,E4_Acc,2024-06-27 06:49:51.335740089,-18.0,-62.0,1.0
1904-01-01 00:33:44.555780103,E4_Acc,2024-06-27 06:49:51.367000103,-18.0,-63.0,0.0
1904-01-01 00:33:44.587030103,E4_Acc,2024-06-27 06:49:51.398250103,-18.0,-62.0,1.0
1904-01-01 00:33:44.618280103,E4_Acc,2024-06-27 06:49:51.429500103,-18.0,-62.0,1.0
1904-01-01 00:33:44.649530103,E4_Acc,2024-06-27 06:49:51.460750103,-18.0,-62.0,1.0
1904-01-01 00:33:44.680780103,E4_Acc,2024-06-27 06:49:51.492000103,-18.0,-62.0,1.0
1904-01-01 00:33:44.712030102,E4_Acc,2024-06-27 06:49:51.523250102,-18.0,-62.0,1.0
1904-01-01 00:33:44.743280103,E4_Acc,2024-06-27 06:49:51.554500103,-17.0,-62.0,1.0
1904-01-01 00:33:44.774540117,E4_Acc,2024-06-27 06:49:51.585760117,-17.0,-63.0,1.0
1904-01-01 00:33:44.805790117,E4_Acc,2024-06-27 06:49:51.617010117,-18.0,-63.0,1.0
1904-01-01 00:33:44.837040117,E4_Acc,2024-06-27 06:49:51.648260117,-18.0,-62.0,1.0
1904-01-01 00:33:44.868290117,E4_Acc,2024-06-27 06:49:51.679510117,-18.0,-62.0,0.0
1904-01-01 00:33:44.899540117,E4_Acc,2024-06-27 06:49:51.710760117,-17.0,-62.0,1.0
1904-01-01 00:33:44.930790117,E4_Acc,2024-06-27 06:49:51.742010117,-17.0,-62.0,1.0
1904-01-01 00:33:44.962040117,E4_Acc,2024-06-27 06:49:51.773260117,-18.0,-63.0,1.0
1904-01-01 00:33:44.993299892,E4_Acc,2024-06-27 06:49:51.804519892,-18.0,-63.0,1.0
1904-01-01 00:33:45.024549892,E4_Acc,2024-06-27 06:49:51.835769892,-18.0,-63.0,0.0
1904-01-01 00:33:45.055799892,E4_Acc,2024-06-27 06:49:51.867019892,-18.0,-61.0,1.0
1904-01-01 00:33:45.087049892,E4_Acc,2024-06-27 06:49:51.898269892,-19.0,-61.0,1.0
1904-01-01 00:33:45.118299892,E4_Acc,2024-06-27 06:49:51.929519892,-18.0,-62.0,1.0
1904-01-01 00:33:45.149549892,E4_Acc,2024-06-27 06:49:51.960769892,-18.0,-62.0,2.0
1904-01-01 00:33:45.180799892,E4_Acc,2024-06-27 06:49:51.992019892,-18.0,-63.0,1.0
1904-01-01 00:33:45.212059905,E4_Acc,2024-06-27 06:49:52.023279905,-17.0,-62.0,1.0
1904-01-01 00:33:45.243309905,E4_Acc,2024-06-27 06:49:52.054529905,-17.0,-62.0,0.0
1904-01-01 00:33:45.274559905,E4_Acc,2024-06-27 06:49:52.085779905,-17.0,-62.0,1.0
1904-01-01 00:33:45.305809905,E4_Acc,2024-06-27 06:49:52.117029905,-19.0,-62.0,0.0
1904-01-01 00:33:45.337059905,E4_Acc,2024-06-27 06:49:52.148279905,-19.0,-62.0,0.0
1904-01-01 00:33:45.368309905,E4_Acc,2024-06-27 06:49:52.179529905,-19.0,-62.0,2.0
1904-01-01 00:33:45.399559905,E4_Acc,2024-06-27 06:49:52.210779905,-19.0,-62.0,2.0
1904-01-01 00:33:45.430819919,E4_Acc,2024-06-27 06:49:52.242039919,-19.0,-62.0,2.0
1904-01-01 00:33:45.462069919,E4_Acc,2024-06-27 06:49:52.273289919,-19.0,-62.0,1.0
1904-01-01 00:33:45.493319919,E4_Acc,2024-06-27 06:49:52.304539919,-18.0,-62.0,1.0
1904-01-01 00:33:45.524569919,E4_Acc,2024-06-27 06:49:52.335789919,-18.0,-62.0,1.0
1904-01-01 00:33:45.555819919,E4_Acc,2024-06-27 06:49:52.367039919,-18.0,-63.0,1.0
1904-01-01 00:33:45.587069919,E4_Acc,2024-06-27 06:49:52.398289919,-18.0,-63.0,1.0
1904-01-01 00:33:45.618319919,E4_Acc,2024-06-27 06:49:52.429539919,-18.0,-62.0,1.0
1904-01-01 00:33:45.649579932,E4_Acc,2024-06-27 06:49:52.460799932,-17.0,-62.0,1.0
1904-01-01 00:33:45.680829932,E4_Acc,2024-06-27 06:49:52.492049932,-17.0,-62.0,1.0
1904-01-01 00:33:45.712079932,E4_Acc,2024-06-27 06:49:52.523299932,-17.0,-62.0,1.0
1904-01-01 00:33:45.743329932,E4_Acc,2024-06-27 06:49:52.554549932,-17.0,-63.0,1.0
1904-01-01 00:33:45.774579932,E4_Acc,2024-06-27 06:49:52.585799932,-17.0,-62.0,1.0
1904-01-01 00:33:45.805829932,E4_Acc,2024-06-27 06:49:52.617049932,-17.0,-62.0,1.0
1904-01-01 00:33:45.837079932,E4_Acc,2024-06-27 06:49:52.648299932,-17.0,-62.0,1.0
1904-01-01 00:33:45.868339946,E4_Acc,2024-06-27 06:49:52.679559946,-17.0,-62.0,0.0
1904-01-01 00:33:45.899589946,E4_Acc,2024-06-27 06:49:52.710809946,-17.0,-62.0,0.0
1904-01-01 00:33:45.930839946,E4_Acc,2024-06-27 06:49:52.742059946,-17.0,-63.0,0.0
1904-01-01 00:33:45.962089946,E4_Acc,2024-06-27 06:49:52.773309946,-17.0,-62.0,0.0
1904-01-01 00:33:45.993339946,E4_Acc,2024-06-27 06:49:52.804559946,-18.0,-62.0,1.0
1904-01-01 00:33:46.024589946,E4_Acc,2024-06-27 06:49:52.835809946,-18.0,-62.0,0.0
1904-01-01 00:33:46.055839946,E4_Acc,2024-06-27 06:49:52.867059946,-18.0,-63.0,1.0
1904-01-01 00:33:46.087099960,E4_Acc,2024-06-27 06:49:52.898319960,-18.0,-63.0,1.0
1904-01-01 00:33:46.118349960,E4_Acc,2024-06-27 06:49:52.929569960,-18.0,-62.0,1.0
1904-01-01 00:33:46.149599960,E4_Acc,2024-06-27 06:49:52.960819960,-18.0,-62.0,1.0
1904-01-01 00:33:46.180849960,E4_Acc,2024-06-27 06:49:52.992069960,-18.0,-62.0,2.0
1904-01-01 00:33:46.212099960,E4_Acc,2024-06-27 06:49:53.023319960,-18.0,-62.0,2.0
1904-01-01 00:33:46.243349960,E4_Acc,2024-06-27 06:49:53.054569960,-18.0,-63.0,1.0
1904-01-01 00:33:46.274599960,E4_Acc,2024-06-27 06:49:53.085819960,-18.0,-63.0,2.0
1904-01-01 00:33:46.305859973,E4_Acc,2024-06-27 06:49:53.117079973,-17.0,-62.0,2.0
1904-01-01 00:33:46.337109973,E4_Acc,2024-06-27 06:49:53.148329973,-17.0,-62.0,0.0
1904-01-01 00:33:46.368359973,E4_Acc,2024-06-27 06:49:53.179579973,-17.0,-62.0,1.0
1904-01-01 00:33:46.399609973,E4_Acc,2024-06-27 06:49:53.210829973,-18.0,-62.0,1.0
1904-01-01 00:33:46.430859973,E4_Acc,2024-06-27 06:49:53.242079973,-18.0,-62.0,0.0
1904-01-01 00:33:46.462109973,E4_Acc,2024-06-27 06:49:53.273329973,-19.0,-63.0,0.0
1904-01-01 00:33:46.493369987,E4_Acc,2024-06-27 06:49:53.304589987,-18.0,-62.0,1.0
1904-01-01 00:33:46.524619987,E4_Acc,2024-06-27 06:49:53.335839987,-18.0,-61.0,1.0
1904-01-01 00:33:46.555869987,E4_Acc,2024-06-27 06:49:53.367089987,-18.0,-62.0,1.0
1904-01-01 00:33:46.587119987,E4_Acc,2024-06-27 06:49:53.398339987,-18.0,-63.0,1.0
1904-01-01 00:33:46.618369987,E4_Acc,2024-06-27 06:49:53.429589987,-18.0,-64.0,1.0
1904-01-01 00:33:46.649619987,E4_Acc,2024-06-27 06:49:53.460839987,-17.0,-62.0,2.0
1904-01-01 00:33:46.680869987,E4_Acc,2024-06-27 06:49:53.492089987,-16.0,-62.0,2.0
1904-01-01 00:33:46.712130000,E4_Acc,2024-06-27 06:49:53.523350000,-16.0,-62.0,1.0
1904-01-01 00:33:46.743380000,E4_Acc,2024-06-27 06:49:53.554600000,-17.0,-62.0,1.0
1904-01-01 00:33:46.774630000,E4_Acc,2024-06-27 06:49:53.585850000,-18.0,-64.0,1.0
1904-01-01 00:33:46.805880000,E4_Acc,2024-06-27 06:49:53.617100000,-18.0,-63.0,1.0
1904-01-01 00:33:46.837130000,E4_Acc,2024-06-27 06:49:53.648350000,-17.0,-62.0,1.0
1904-01-01 00:33:46.868380000,E4_Acc,2024-06-27 06:49:53.679600000,-17.0,-62.0,1.0
1904-01-01 00:33:46.899630000,E4_Acc,2024-06-27 06:49:53.710850000,-18.0,-62.0,1.0
1904-01-01 00:33:46.930890014,E4_Acc,2024-06-27 06:49:53.742110014,-18.0,-62.0,1.0
1904-01-01 00:33:46.962140014,E4_Acc,2024-06-27 06:49:53.773360014,-18.0,-62.0,1.0
1904-01-01 00:33:46.993390014,E4_Acc,2024-06-27 06:49:53.804610014,-17.0,-62.0,1.0
1904-01-01 00:33:47.024640014,E4_Acc,2024-06-27 06:49:53.835860014,-17.0,-62.0,1.0
1904-01-01 00:33:47.055890014,E4_Acc,2024-06-27 06:49:53.867110014,-18.0,-61.0,1.0
1904-01-01 00:33:47.087140014,E4_Acc,2024-06-27 06:49:53.898360014,-18.0,-61.0,1.0
1904-01-01 00:33:47.118390014,E4_Acc,2024-06-27 06:49:53.929610014,-19.0,-63.0,1.0
1904-01-01 00:33:47.149650028,E4_Acc,2024-06-27 06:49:53.960870028,-19.0,-63.0,1.0
1904-01-01 00:33:47.180900028,E4_Acc,2024-06-27 06:49:53.992120028,-18.0,-62.0,2.0
1904-01-01 00:33:47.212150028,E4_Acc,2024-06-27 06:49:54.023370028,-17.0,-62.0,1.0
1904-01-01 00:33:47.243400028,E4_Acc,2024-06-27 06:49:54.054620028,-17.0,-62.0,1.0
1904-01-01 00:33:47.274650028,E4_Acc,2024-06-27 06:49:54.085870028,-18.0,-63.0,1.0
1904-01-01 00:33:47.305900028,E4_Acc,2024-06-27 06:49:54.117120028,-18.0,-62.0,1.0
1904-01-01 00:33:47.337150028,E4_Acc,2024-06-27 06:49:54.148370028,-18.0,-62.0,1.0
1904-01-01 00:33:47.368410041,E4_Acc,2024-06-27 06:49:54.179630041,-18.0,-62.0,1.0
1904-01-01 00:33:47.399660041,E4_Acc,2024-06-27 06:49:54.210880041,-17.0,-62.0,2.0
1904-01-01 00:33:47.430910041,E4_Acc,2024-06-27 06:49:54.242130041,-17.0,-62.0,2.0
1904-01-01 00:33:47.462160041,E4_Acc,2024-06-27 06:49:54.273380041,-18.0,-63.0,1.0
1904-01-01 00:33:47.493410041,E4_Acc,2024-06-27 06:49:54.304630041,-17.0,-63.0,1.0
1904-01-01 00:33:47.524660041,E4_Acc,2024-06-27 06:49:54.335880041,-18.0,-63.0,1.0
1904-01-01 00:33:47.555910041,E4_Acc,2024-06-27 06:49:54.367130041,-18.0,-63.0,0.0
1904-01-01 00:33:47.587170055,E4_Acc,2024-06-27 06:49:54.398390055,-18.0,-62.0,1.0
1904-01-01 00:33:47.618420055,E4_Acc,2024-06-27 06:49:54.429640055,-17.0,-62.0,1.0
1904-01-01 00:33:47.649670055,E4_Acc,2024-06-27 06:49:54.460890055,-17.0,-62.0,1.0
1904-01-01 00:33:47.680920055,E4_Acc,2024-06-27 06:49:54.492140055,-18.0,-63.0,1.0
1904-01-01 00:33:47.712170055,E4_Acc,2024-06-27 06:49:54.523390055,-18.0,-63.0,1.0
1904-01-01 00:33:47.743420055,E4_Acc,2024-06-27 06:49:54.554640055,-17.0,-61.0,1.0
1904-01-01 00:33:47.774670055,E4_Acc,2024-06-27 06:49:54.585890055,-17.0,-61.0,0.0
1904-01-01 00:33:47.805930068,E4_Acc,2024-06-27 06:49:54.617150068,-17.0,-63.0,1.0
1904-01-01 00:33:47.837180068,E4_Acc,2024-06-27 06:49:54.648400068,-19.0,-64.0,1.0
1904-01-01 00:33:47.868430068,E4_Acc,2024-06-27 06:49:54.679650068,-18.0,-63.0,1.0
1904-01-01 00:33:47.899680068,E4_Acc,2024-06-27 06:49:54.710900068,-18.0,-62.0,1.0
1904-01-01 00:33:47.930930068,E4_Acc,2024-06-27 06:49:54.742150068,-17.0,-62.0,1.0
1904-01-01 00:33:47.962180068,E4_Acc,2024-06-27 06:49:54.773400068,-18.0,-62.0,1.0
1904-01-01 00:33:47.993430068,E4_Acc,2024-06-27 06:49:54.804650068,-19.0,-62.0,1.0
1904-01-01 00:33:48.024690082,E4_Acc,2024-06-27 06:49:54.835910082,-18.0,-62.0,1.0
1904-01-01 00:33:48.055940082,E4_Acc,2024-06-27 06:49:54.867160082,-17.0,-62.0,1.0
1904-01-01 00:33:48.087190082,E4_Acc,2024-06-27 06:49:54.898410082,-17.0,-63.0,0.0
1904-01-01 00:33:48.118440082,E4_Acc,2024-06-27 06:49:54.929660082,-17.0,-63.0,0.0
1904-01-01 00:33:48.149690082,E4_Acc,2024-06-27 06:49:54.960910082,-17.0,-62.0,1.0
1904-01-01 00:33:48.180940082,E4_Acc,2024-06-27 06:49:54.992160082,-17.0,-62.0,0.0
1904-01-01 00:33:48.212190082,E4_Acc,2024-06-27 06:49:55.023410082,-17.0,-62.0,1.0
1904-01-01 00:33:48.243450095,E4_Acc,2024-06-27 06:49:55.054670095,-18.0,-63.0,1.0
1904-01-01 00:33:48.274700095,E4_Acc,2024-06-27 06:49:55.085920095,-18.0,-63.0,0.0
1904-01-01 00:33:48.305950095,E4_Acc,2024-06-27 06:49:55.117170095,-17.0,-62.0,1.0
1904-01-01 00:33:48.337200095,E4_Acc,2024-06-27 06:49:55.148420095,-17.0,-61.0,1.0
1904-01-01 00:33:48.368450095,E4_Acc,2024-06-27 06:49:55.179670095,-17.0,-62.0,1.0
1904-01-01 00:33:48.399700095,E4_Acc,2024-06-27 06:49:55.210920095,-17.0,-63.0,1.0
1904-01-01 00:33:48.430950095,E4_Acc,2024-06-27 06:49:55.242170095,-17.0,-62.0,1.0
1904-01-01 00:33:48.462210109,E4_Acc,2024-06-27 06:49:55.273430109,-17.0,-63.0,0.0
1904-01-01 00:33:48.493460109,E4_Acc,2024-06-27 06:49:55.304680109,-17.0,-62.0,0.0
1904-01-01 00:33:48.524710109,E4_Acc,2024-06-27 06:49:55.335930109,-17.0,-62.0,1.0
1904-01-01 00:33:48.555960109,E4_Acc,2024-06-27 06:49:55.367180109,-17.0,-62.0,0.0
1904-01-01 00:33:48.587210109,E4_Acc,2024-06-27 06:49:55.398430109,-17.0,-63.0,0.0
1904-01-01 00:33:48.618460109,E4_Acc,2024-06-27 06:49:55.429680109,-17.0,-62.0,1.0
1904-01-01 00:33:48.649710109,E4_Acc,2024-06-27 06:49:55.460930109,-17.0,-62.0,1.0
1904-01-01 00:33:48.680969884,E4_Acc,2024-06-27 06:49:55.492189884,-17.0,-62.0,1.0
1904-01-01 00:33:48.712219883,E4_Acc,2024-06-27 06:49:55.523439883,-17.0,-63.0,1.0
1904-01-01 00:33:48.743469884,E4_Acc,2024-06-27 06:49:55.554689884,-17.0,-63.0,1.0
1904-01-01 00:33:48.774719884,E4_Acc,2024-06-27 06:49:55.585939884,-17.0,-62.0,1.0
1904-01-01 00:33:48.805969884,E4_Acc,2024-06-27 06:49:55.617189884,-17.0,-62.0,1.0
1904-01-01 00:33:48.837219884,E4_Acc,2024-06-27 06:49:55.648439884,-17.0,-62.0,1.0
1904-01-01 00:33:48.868479898,E4_Acc,2024-06-27 06:49:55.679699898,-17.0,-63.0,1.0
1904-01-01 00:33:48.899729898,E4_Acc,2024-06-27 06:49:55.710949898,-18.0,-63.0,1.0
1904-01-01 00:33:48.930979898,E4_Acc,2024-06-27 06:49:55.742199898,-18.0,-63.0,2.0
1904-01-01 00:33:48.962229898,E4_Acc,2024-06-27 06:49:55.773449898,-17.0,-62.0,2.0
1904-01-01 00:33:48.993479898,E4_Acc,2024-06-27 06:49:55.804699898,-17.0,-62.0,1.0
1904-01-01 00:33:49.024729898,E4_Acc,2024-06-27 06:49:55.835949898,-17.0,-62.0,1.0
1904-01-01 00:33:49.055979898,E4_Acc,2024-06-27 06:49:55.867199898,-17.0,-62.0,1.0
1904-01-01 00:33:49.087239911,E4_Acc,2024-06-27 06:49:55.898459911,-17.0,-62.0,0.0
1904-01-01 00:33:49.118489911,E4_Acc,2024-06-27 06:49:55.929709911,-17.0,-63.0,0.0
1904-01-01 00:33:49.149739911,E4_Acc,2024-06-27 06:49:55.960959911,-17.0,-63.0,0.0
1904-01-01 00:33:49.180989911,E4_Acc,2024-06-27 06:49:55.992209911,-16.0,-62.0,1.0
1904-01-01 00:33:49.212239911,E4_Acc,2024-06-27 06:49:56.023459911,-16.0,-61.0,1.0
1904-01-01 00:33:49.243489911,E4_Acc,2024-06-27 06:49:56.054709911,-17.0,-63.0,1.0
1904-01-01 00:33:49.274739911,E4_Acc,2024-06-27 06:49:56.085959911,-17.0,-63.0,1.0
1904-01-01 00:33:49.305999925,E4_Acc,2024-06-27 06:49:56.117219925,-17.0,-62.0,1.0
1904-01-01 00:33:49.337249925,E4_Acc,2024-06-27 06:49:56.148469925,-17.0,-62.0,1.0
1904-01-01 00:33:49.368499925,E4_Acc,2024-06-27 06:49:56.179719925,-17.0,-62.0,1.0
1904-01-01 00:33:49.399749925,E4_Acc,2024-06-27 06:49:56.210969925,-17.0,-63.0,1.0
1904-01-01 00:33:49.430999925,E4_Acc,2024-06-27 06:49:56.242219925,-17.0,-62.0,1.0
1904-01-01 00:33:49.462249925,E4_Acc,2024-06-27 06:49:56.273469925,-17.0,-62.0,1.0
1904-01-01 00:33:49.493499925,E4_Acc,2024-06-27 06:49:56.304719925,-16.0,-63.0,1.0
1904-01-01 00:33:49.524759939,E4_Acc,2024-06-27 06:49:56.335979939,-16.0,-63.0,1.0
1904-01-01 00:33:49.556009939,E4_Acc,2024-06-27 06:49:56.367229939,-18.0,-63.0,0.0
1904-01-01 00:33:49.587259939,E4_Acc,2024-06-27 06:49:56.398479939,-18.0,-63.0,1.0
1904-01-01 00:33:49.618509939,E4_Acc,2024-06-27 06:49:56.429729939,-18.0,-63.0,1.0
1904-01-01 00:33:49.649759939,E4_Acc,2024-06-27 06:49:56.460979939,-17.0,-62.0,1.0
1904-01-01 00:33:49.681009939,E4_Acc,2024-06-27 06:49:56.492229939,-17.0,-61.0,2.0
1904-01-01 00:33:49.712259939,E4_Acc,2024-06-27 06:49:56.523479939,-17.0,-62.0,1.0
1904-01-01 00:33:49.743519952,E4_Acc,2024-06-27 06:49:56.554739952,-17.0,-63.0,1.0
1904-01-01 00:33:49.774769952,E4_Acc,2024-06-27 06:49:56.585989952,-17.0,-63.0,1.0
1904-01-01 00:33:49.806019952,E4_Acc,2024-06-27 06:49:56.617239952,-17.0,-63.0,0.0
1904-01-01 00:33:49.837269952,E4_Acc,2024-06-27 06:49:56.648489952,-17.0,-62.0,1.0
1904-01-01 00:33:49.868519952,E4_Acc,2024-06-27 06:49:56.679739952,-17.0,-62.0,1.0
1904-01-01 00:33:49.899769952,E4_Acc,2024-06-27 06:49:56.710989952,-18.0,-62.0,1.0
1904-01-01 00:33:49.931019952,E4_Acc,2024-06-27 06:49:56.742239952,-19.0,-62.0,1.0
1904-01-01 00:33:49.962279966,E4_Acc,2024-06-27 06:49:56.773499966,-18.0,-63.0,1.0
1904-01-01 00:33:49.993529966,E4_Acc,2024-06-27 06:49:56.804749966,-17.0,-62.0,2.0
1904-01-01 00:33:50.024779966,E4_Acc,2024-06-27 06:49:56.835999966,-17.0,-62.0,1.0
1904-01-01 00:33:50.056029966,E4_Acc,2024-06-27 06:49:56.867249966,-16.0,-62.0,0.0
1904-01-01 00:33:50.087279966,E4_Acc,2024-06-27 06:49:56.898499966,-16.0,-62.0,1.0
1904-01-01 00:33:50.118529966,E4_Acc,2024-06-27 06:49:56.929749966,-17.0,-63.0,1.0
1904-01-01 00:33:50.149779966,E4_Acc,2024-06-27 06:49:56.960999966,-17.0,-63.0,0.0
1904-01-01 00:33:50.181039979,E4_Acc,2024-06-27 06:49:56.992259979,-18.0,-63.0,0.0
1904-01-01 00:33:50.212289979,E4_Acc,2024-06-27 06:49:57.023509979,-18.0,-62.0,0.0
1904-01-01 00:33:50.243539979,E4_Acc,2024-06-27 06:49:57.054759979,-18.0,-62.0,1.0
1904-01-01 00:33:50.274789979,E4_Acc,2024-06-27 06:49:57.086009979,-18.0,-62.0,2.0
1904-01-01 00:33:50.306039979,E4_Acc,2024-06-27 06:49:57.117259979,-17.0,-62.0,1.0
1904-01-01 00:33:50.337289979,E4_Acc,2024-06-27 06:49:57.148509979,-17.0,-63.0,1.0
1904-01-01 00:33:50.368539979,E4_Acc,2024-06-27 06:49:57.179759979,-17.0,-63.0,1.0
1904-01-01 00:33:50.399799993,E4_Acc,2024-06-27 06:49:57.211019993,-17.0,-63.0,0.0
1904-01-01 00:33:50.431049993,E4_Acc,2024-06-27 06:49:57.242269993,-18.0,-62.0,0.0
1904-01-01 00:33:50.462299993,E4_Acc,2024-06-27 06:49:57.273519993,-17.0,-61.0,0.0
1904-01-01 00:33:50.493549993,E4_Acc,2024-06-27 06:49:57.304769993,-18.0,-62.0,1.0
1904-01-01 00:33:50.524799993,E4_Acc,2024-06-27 06:49:57.336019993,-19.0,-63.0,1.0
1904-01-01 00:33:50.556049993,E4_Acc,2024-06-27 06:49:57.367269993,-18.0,-62.0,2.0
1904-01-01 00:33:50.587299993,E4_Acc,2024-06-27 06:49:57.398519993,-17.0,-63.0,1.0
1904-01-01 00:33:50.618560006,E4_Acc,2024-06-27 06:49:57.429780006,-17.0,-62.0,1.0
1904-01-01 00:33:50.649810006,E4_Acc,2024-06-27 06:49:57.461030006,-16.0,-62.0,1.0
1904-01-01 00:33:50.681060006,E4_Acc,2024-06-27 06:49:57.492280006,-17.0,-62.0,0.0
1904-01-01 00:33:50.712310006,E4_Acc,2024-06-27 06:49:57.523530006,-17.0,-62.0,0.0
1904-01-01 00:33:50.743560006,E4_Acc,2024-06-27 06:49:57.554780006,-17.0,-62.0,0.0
1904-01-01 00:33:50.774810006,E4_Acc,2024-06-27 06:49:57.586030006,-17.0,-63.0,0.0
1904-01-01 00:33:50.806060006,E4_Acc,2024-06-27 06:49:57.617280006,-18.0,-63.0,1.0
1904-01-01 00:33:50.837320020,E4_Acc,2024-06-27 06:49:57.648540020,-18.0,-62.0,0.0
1904-01-01 00:33:50.868570020,E4_Acc,2024-06-27 06:49:57.679790020,-18.0,-62.0,1.0
1904-01-01 00:33:50.899820020,E4_Acc,2024-06-27 06:49:57.711040020,-18.0,-62.0,1.0
1904-01-01 00:33:50.931070020,E4_Acc,2024-06-27 06:49:57.742290020,-18.0,-62.0,1.0
1904-01-01 00:33:50.962320020,E4_Acc,2024-06-27 06:49:57.773540020,-18.0,-62.0,1.0
1904-01-01 00:33:50.993570020,E4_Acc,2024-06-27 06:49:57.804790020,-18.0,-63.0,1.0
1904-01-01 00:33:51.024820020,E4_Acc,2024-06-27 06:49:57.836040020,-17.0,-62.0,1.0
1904-01-01 00:33:51.056080034,E4_Acc,2024-06-27 06:49:57.867300034,-17.0,-62.0,1.0
1904-01-01 00:33:51.087330034,E4_Acc,2024-06-27 06:49:57.898550034,-17.0,-62.0,0.0
1904-01-01 00:33:51.118580034,E4_Acc,2024-06-27 06:49:57.929800034,-17.0,-62.0,1.0
1904-01-01 00:33:51.149830034,E4_Acc,2024-06-27 06:49:57.961050034,-18.0,-63.0,1.0
1904-01-01 00:33:51.181080034,E4_Acc,2024-06-27 06:49:57.992300034,-18.0,-63.0,1.0
1904-01-01 00:33:51.212330034,E4_Acc,2024-06-27 06:49:58.023550034,-18.0,-62.0,1.0
1904-01-01 00:33:51.243590047,E4_Acc,2024-06-27 06:49:58.054810047,-19.0,-62.0,1.0
1904-01-01 00:33:51.274840047,E4_Acc,2024-06-27 06:49:58.086060047,-19.0,-62.0,1.0
1904-01-01 00:33:51.306090047,E4_Acc,2024-06-27 06:49:58.117310047,-19.0,-62.0,1.0
1904-01-01 00:33:51.337340047,E4_Acc,2024-06-27 06:49:58.148560047,-18.0,-62.0,1.0
1904-01-01 00:33:51.368590047,E4_Acc,2024-06-27 06:49:58.179810047,-18.0,-63.0,1.0
1904-01-01 00:33:51.399840047,E4_Acc,2024-06-27 06:49:58.211060047,-17.0,-62.0,1.0
1904-01-01 00:33:51.431090047,E4_Acc,2024-06-27 06:49:58.242310047,-17.0,-62.0,1.0
1904-01-01 00:33:51.462350061,E4_Acc,2024-06-27 06:49:58.273570061,-17.0,-62.0,0.0
1904-01-01 00:33:51.493600061,E4_Acc,2024-06-27 06:49:58.304820061,-17.0,-62.0,0.0
1904-01-01 00:33:51.524850061,E4_Acc,2024-06-27 06:49:58.336070061,-18.0,-62.0,0.0
1904-01-01 00:33:51.556100061,E4_Acc,2024-06-27 06:49:58.367320061,-18.0,-63.0,1.0
1904-01-01 00:33:51.587350061,E4_Acc,2024-06-27 06:49:58.398570061,-19.0,-62.0,1.0
1904-01-01 00:33:51.618600061,E4_Acc,2024-06-27 06:49:58.429820061,-19.0,-62.0,1.0
1904-01-01 00:33:51.649850061,E4_Acc,2024-06-27 06:49:58.461070061,-18.0,-62.0,1.0
1904-01-01 00:33:51.681110074,E4_Acc,2024-06-27 06:49:58.492330074,-18.0,-62.0,2.0
1904-01-01 00:33:51.712360073,E4_Acc,2024-06-27 06:49:58.523580073,-19.0,-63.0,1.0
1904-01-01 00:33:51.743610074,E4_Acc,2024-06-27 06:49:58.554830074,-18.0,-62.0,1.0
1904-01-01 00:33:51.774860074,E4_Acc,2024-06-27 06:49:58.586080074,-17.0,-62.0,1.0
1904-01-01 00:33:51.806110074,E4_Acc,2024-06-27 06:49:58.617330074,-17.0,-62.0,0.0
1904-01-01 00:33:51.837360074,E4_Acc,2024-06-27 06:49:58.648580074,-17.0,-62.0,1.0
1904-01-01 00:33:51.868610074,E4_Acc,2024-06-27 06:49:58.679830074,-18.0,-63.0,0.0
1904-01-01 00:33:51.899870088,E4_Acc,2024-06-27 06:49:58.711090088,-18.0,-63.0,1.0
1904-01-01 00:33:51.931120088,E4_Acc,2024-06-27 06:49:58.742340088,-17.0,-62.0,1.0
1904-01-01 00:33:51.962370088,E4_Acc,2024-06-27 06:49:58.773590088,-17.0,-62.0,1.0
1904-01-01 00:33:51.993620088,E4_Acc,2024-06-27 06:49:58.804840088,-17.0,-63.0,1.0
1904-01-01 00:33:52.024870088,E4_Acc,2024-06-27 06:49:58.836090088,-18.0,-63.0,1.0
1904-01-01 00:33:52.056120088,E4_Acc,2024-06-27 06:49:58.867340088,-18.0,-62.0,1.0
1904-01-01 00:33:52.087370088,E4_Acc,2024-06-27 06:49:58.898590088,-19.0,-62.0,1.0
1904-01-01 00:33:52.118630101,E4_Acc,2024-06-27 06:49:58.929850101,-18.0,-62.0,1.0
1904-01-01 00:33:52.149880101,E4_Acc,2024-06-27 06:49:58.961100101,-18.0,-62.0,1.0
1904-01-01 00:33:52.181130101,E4_Acc,2024-06-27 06:49:58.992350101,-18.0,-63.0,0.0
1904-01-01 00:33:52.212380101,E4_Acc,2024-06-27 06:49:59.023600101,-18.0,-62.0,1.0
1904-01-01 00:33:52.243630101,E4_Acc,2024-06-27 06:49:59.054850101,-17.0,-62.0,1.0
1904-01-01 00:33:52.274880101,E4_Acc,2024-06-27 06:49:59.086100101,-17.0,-62.0,0.0
1904-01-01 00:33:52.306130101,E4_Acc,2024-06-27 06:49:59.117350101,-18.0,-62.0,1.0
1904-01-01 00:33:52.337390115,E4_Acc,2024-06-27 06:49:59.148610115,-18.0,-62.0,1.0
1904-01-01 00:33:52.368640115,E4_Acc,2024-06-27 06:49:59.179860115,-18.0,-62.0,1.0
1904-01-01 00:33:52.399890115,E4_Acc,2024-06-27 06:49:59.211110115,-19.0,-63.0,1.0
1904-01-01 00:33:52.431140115,E4_Acc,2024-06-27 06:49:59.242360115,-19.0,-63.0,1.0
1904-01-01 00:33:52.462390115,E4_Acc,2024-06-27 06:49:59.273610115,-18.0,-62.0,1.0
1904-01-01 00:33:52.493640115,E4_Acc,2024-06-27 06:49:59.304860115,-18.0,-61.0,1.0
1904-01-01 00:33:52.524890115,E4_Acc,2024-06-27 06:49:59.336110115,-17.0,-62.0,1.0
1904-01-01 00:33:52.556149890,E4_Acc,2024-06-27 06:49:59.367369890,-18.0,-63.0,1.0
1904-01-01 00:33:52.587399890,E4_Acc,2024-06-27 06:49:59.398619890,-18.0,-62.0,1.0
1904-01-01 00:33:52.618649890,E4_Acc,2024-06-27 06:49:59.429869890,-18.0,-62.0,1.0
1904-01-01 00:33:52.649899890,E4_Acc,2024-06-27 06:49:59.461119890,-17.0,-62.0,1.0
1904-01-01 00:33:52.681149890,E4_Acc,2024-06-27 06:49:59.492369890,-17.0,-61.0,1.0
1904-01-01 00:33:52.712399890,E4_Acc,2024-06-27 06:49:59.523619890,-18.0,-62.0,1.0
1904-01-01 00:33:52.743649890,E4_Acc,2024-06-27 06:49:59.554869890,-19.0,-63.0,1.0
1904-01-01 00:33:52.774909904,E4_Acc,2024-06-27 06:49:59.586129904,-19.0,-62.0,1.0
1904-01-01 00:33:52.806159904,E4_Acc,2024-06-27 06:49:59.617379904,-18.0,-63.0,1.0
1904-01-01 00:33:52.837409904,E4_Acc,2024-06-27 06:49:59.648629904,-18.0,-63.0,1.0
1904-01-01 00:33:52.868659904,E4_Acc,2024-06-27 06:49:59.679879904,-18.0,-62.0,1.0
1904-01-01 00:33:52.899909904,E4_Acc,2024-06-27 06:49:59.711129904,-18.0,-62.0,1.0
1904-01-01 00:33:52.931159904,E4_Acc,2024-06-27 06:49:59.742379904,-18.0,-63.0,1.0
1904-01-01 00:33:52.962409904,E4_Acc,2024-06-27 06:49:59.773629904,-19.0,-63.0,1.0
1904-01-01 00:33:52.993669917,E4_Acc,2024-06-27 06:49:59.804889917,-18.0,-63.0,1.0
1904-01-01 00:33:53.024919917,E4_Acc,2024-06-27 06:49:59.836139917,-17.0,-61.0,1.0
1904-01-01 00:33:53.056169917,E4_Acc,2024-06-27 06:49:59.867389917,-17.0,-62.0,1.0
1904-01-01 00:33:53.087419917,E4_Acc,2024-06-27 06:49:59.898639917,-18.0,-62.0,1.0
1904-01-01 00:33:53.118669917,E4_Acc,2024-06-27 06:49:59.929889917,-18.0,-63.0,0.0
1904-01-01 00:33:53.149919917,E4_Acc,2024-06-27 06:49:59.961139917,-18.0,-63.0,1.0
1904-01-01 00:33:53.181169917,E4_Acc,2024-06-27 06:49:59.992389917,-17.0,-61.0,1.0
1904-01-01 00:33:53.212429931,E4_Acc,2024-06-27 06:50:00.023649931,-18.0,-62.0,0.0
1904-01-01 00:33:53.243679931,E4_Acc,2024-06-27 06:50:00.054899931,-18.0,-63.0,1.0
1904-01-01 00:33:53.274929931,E4_Acc,2024-06-27 06:50:00.086149931,-19.0,-63.0,1.0
1904-01-01 00:33:53.306179931,E4_Acc,2024-06-27 06:50:00.117399931,-18.0,-62.0,1.0
1904-01-01 00:33:53.337429931,E4_Acc,2024-06-27 06:50:00.148649931,-17.0,-61.0,1.0
1904-01-01 00:33:53.368679931,E4_Acc,2024-06-27 06:50:00.179899931,-17.0,-63.0,1.0
1904-01-01 00:33:53.399929931,E4_Acc,2024-06-27 06:50:00.211149931,-17.0,-63.0,1.0
1904-01-01 00:33:53.431189945,E4_Acc,2024-06-27 06:50:00.242409945,-18.0,-63.0,1.0
1904-01-01 00:33:53.462439945,E4_Acc,2024-06-27 06:50:00.273659945,-18.0,-62.0,1.0
1904-01-01 00:33:53.493689945,E4_Acc,2024-06-27 06:50:00.304909945,-18.0,-62.0,0.0
1904-01-01 00:33:53.524939945,E4_Acc,2024-06-27 06:50:00.336159945,-18.0,-62.0,1.0
1904-01-01 00:33:53.556189945,E4_Acc,2024-06-27 06:50:00.367409945,-18.0,-62.0,1.0
1904-01-01 00:33:53.587439945,E4_Acc,2024-06-27 06:50:00.398659945,-18.0,-62.0,0.0
1904-01-01 00:33:53.618689945,E4_Acc,2024-06-27 06:50:00.429909945,-17.0,-62.0,0.0
1904-01-01 00:33:53.649949958,E4_Acc,2024-06-27 06:50:00.461169958,-17.0,-63.0,1.0
1904-01-01 00:33:53.681199958,E4_Acc,2024-06-27 06:50:00.492419958,-18.0,-63.0,0.0
1904-01-01 00:33:53.712449958,E4_Acc,2024-06-27 06:50:00.523669958,-18.0,-62.0,0.0
1904-01-01 00:33:53.743699958,E4_Acc,2024-06-27 06:50:00.554919958,-17.0,-62.0,1.0
1904-01-01 00:33:53.774949958,E4_Acc,2024-06-27 06:50:00.586169958,-17.0,-62.0,1.0
1904-01-01 00:33:53.806199958,E4_Acc,2024-06-27 06:50:00.617419958,-18.0,-63.0,1.0
1904-01-01 00:33:53.837459972,E4_Acc,2024-06-27 06:50:00.648679972,-19.0,-63.0,1.0
1904-01-01 00:33:53.868709972,E4_Acc,2024-06-27 06:50:00.679929972,-18.0,-63.0,1.0
1904-01-01 00:33:53.899959972,E4_Acc,2024-06-27 06:50:00.711179972,-18.0,-62.0,1.0
1904-01-01 00:33:53.931209972,E4_Acc,2024-06-27 06:50:00.742429972,-18.0,-62.0,1.0
1904-01-01 00:33:53.962459972,E4_Acc,2024-06-27 06:50:00.773679972,-18.0,-62.0,1.0
1904-01-01 00:33:53.993709972,E4_Acc,2024-06-27 06:50:00.804929972,-19.0,-62.0,1.0
1904-01-01 00:33:54.024959972,E4_Acc,2024-06-27 06:50:00.836179972,-18.0,-62.0,1.0
1904-01-01 00:33:54.056219985,E4_Acc,2024-06-27 06:50:00.867439985,-17.0,-62.0,1.0
1904-01-01 00:33:54.087469985,E4_Acc,2024-06-27 06:50:00.898689985,-18.0,-62.0,1.0
1904-01-01 00:33:54.118719985,E4_Acc,2024-06-27 06:50:00.929939985,-19.0,-62.0,1.0
1904-01-01 00:33:54.149969985,E4_Acc,2024-06-27 06:50:00.961189985,-19.0,-62.0,1.0
1904-01-01 00:33:54.181219985,E4_Acc,2024-06-27 06:50:00.992439985,-19.0,-62.0,1.0
1904-01-01 00:33:54.212469985,E4_Acc,2024-06-27 06:50:01.023689985,-19.0,-62.0,2.0
1904-01-01 00:33:54.243719985,E4_Acc,2024-06-27 06:50:01.054939985,-18.0,-62.0,2.0
1904-01-01 00:33:54.274979999,E4_Acc,2024-06-27 06:50:01.086199999,-18.0,-62.0,1.0
1904-01-01 00:33:54.306229999,E4_Acc,2024-06-27 06:50:01.117449999,-18.0,-62.0,1.0
1904-01-01 00:33:54.337479999,E4_Acc,2024-06-27 06:50:01.148699999,-18.0,-62.0,1.0
1904-01-01 00:33:54.368729999,E4_Acc,2024-06-27 06:50:01.179949999,-18.0,-62.0,1.0
1904-01-01 00:33:54.399979999,E4_Acc,2024-06-27 06:50:01.211199999,-18.0,-62.0,1.0
1904-01-01 00:33:54.431229999,E4_Acc,2024-06-27 06:50:01.242449999,-18.0,-62.0,1.0
1904-01-01 00:33:54.462479999,E4_Acc,2024-06-27 06:50:01.273699999,-18.0,-62.0,2.0
1904-01-01 00:33:54.493740012,E4_Acc,2024-06-27 06:50:01.304960012,-19.0,-63.0,1.0
1904-01-01 00:33:54.524990012,E4_Acc,2024-06-27 06:50:01.336210012,-18.0,-62.0,2.0
1904-01-01 00:33:54.556240012,E4_Acc,2024-06-27 06:50:01.367460012,-18.0,-62.0,1.0
1904-01-01 00:33:54.587490012,E4_Acc,2024-06-27 06:50:01.398710012,-18.0,-62.0,1.0
1904-01-01 00:33:54.618740012,E4_Acc,2024-06-27 06:50:01.429960012,-17.0,-62.0,1.0
1904-01-01 00:33:54.649990012,E4_Acc,2024-06-27 06:50:01.461210012,-17.0,-63.0,0.0
1904-01-01 00:33:54.681240012,E4_Acc,2024-06-27 06:50:01.492460012,-18.0,-63.0,1.0
1904-01-01 00:33:54.712500026,E4_Acc,2024-06-27 06:50:01.523720026,-18.0,-62.0,1.0
1904-01-01 00:33:54.743750026,E4_Acc,2024-06-27 06:50:01.554970026,-18.0,-62.0,1.0
1904-01-01 00:33:54.775000026,E4_Acc,2024-06-27 06:50:01.586220026,-18.0,-62.0,2.0
1904-01-01 00:33:54.806250026,E4_Acc,2024-06-27 06:50:01.617470026,-19.0,-62.0,1.0
1904-01-01 00:33:54.837500026,E4_Acc,2024-06-27 06:50:01.648720026,-19.0,-62.0,1.0
1904-01-01 00:33:54.868750026,E4_Acc,2024-06-27 06:50:01.679970026,-18.0,-63.0,1.0
1904-01-01 00:33:54.900000026,E4_Acc,2024-06-27 06:50:01.711220026,-18.0,-62.0,1.0
1904-01-01 00:33:54.931260040,E4_Acc,2024-06-27 06:50:01.742480040,-17.0,-62.0,1.0
1904-01-01 00:33:54.962510040,E4_Acc,2024-06-27 06:50:01.773730040,-18.0,-62.0,1.0
1904-01-01 00:33:54.993760040,E4_Acc,2024-06-27 06:50:01.804980040,-18.0,-62.0,1.0
1904-01-01 00:33:55.025010040,E4_Acc,2024-06-27 06:50:01.836230040,-20.0,-63.0,1.0
1904-01-01 00:33:55.056260040,E4_Acc,2024-06-27 06:50:01.867480040,-20.0,-63.0,1.0
1904-01-01 00:33:55.087510040,E4_Acc,2024-06-27 06:50:01.898730040,-17.0,-61.0,2.0
1904-01-01 00:33:55.118760040,E4_Acc,2024-06-27 06:50:01.929980040,-17.0,-62.0,1.0
1904-01-01 00:33:55.150020053,E4_Acc,2024-06-27 06:50:01.961240053,-17.0,-62.0,1.0
1904-01-01 00:33:55.181270053,E4_Acc,2024-06-27 06:50:01.992490053,-18.0,-63.0,1.0
1904-01-01 00:33:55.212520053,E4_Acc,2024-06-27 06:50:02.023740053,-17.0,-63.0,1.0
1904-01-01 00:33:55.243770053,E4_Acc,2024-06-27 06:50:02.054990053,-17.0,-62.0,0.0
1904-01-01 00:33:55.275020053,E4_Acc,2024-06-27 06:50:02.086240053,-17.0,-62.0,1.0
1904-01-01 00:33:55.306270053,E4_Acc,2024-06-27 06:50:02.117490053,-17.0,-63.0,1.0
1904-01-01 00:33:55.337520053,E4_Acc,2024-06-27 06:50:02.148740053,-18.0,-63.0,1.0
1904-01-01 00:33:55.368780067,E4_Acc,2024-06-27 06:50:02.180000067,-17.0,-62.0,2.0
1904-01-01 00:33:55.400030067,E4_Acc,2024-06-27 06:50:02.211250067,-16.0,-62.0,1.0
1904-01-01 00:33:55.431280067,E4_Acc,2024-06-27 06:50:02.242500067,-17.0,-63.0,1.0
1904-01-01 00:33:55.462530067,E4_Acc,2024-06-27 06:50:02.273750067,-18.0,-64.0,0.0
1904-01-01 00:33:55.493780067,E4_Acc,2024-06-27 06:50:02.305000067,-18.0,-62.0,1.0
1904-01-01 00:33:55.525030067,E4_Acc,2024-06-27 06:50:02.336250067,-18.0,-62.0,1.0
1904-01-01 00:33:55.556280067,E4_Acc,2024-06-27 06:50:02.367500067,-17.0,-62.0,1.0
1904-01-01 00:33:55.587540080,E4_Acc,2024-06-27 06:50:02.398760080,-18.0,-63.0,1.0
1904-01-01 00:33:55.618790080,E4_Acc,2024-06-27 06:50:02.430010080,-18.0,-63.0,0.0
1904-01-01 00:33:55.650040080,E4_Acc,2024-06-27 06:50:02.461260080,-17.0,-62.0,1.0
1904-01-01 00:33:55.681290080,E4_Acc,2024-06-27 06:50:02.492510080,-17.0,-62.0,1.0
1904-01-01 00:33:55.712540079,E4_Acc,2024-06-27 06:50:02.523760079,-16.0,-62.0,1.0
1904-01-01 00:33:55.743790080,E4_Acc,2024-06-27 06:50:02.555010080,-17.0,-62.0,0.0
1904-01-01 00:33:55.775040080,E4_Acc,2024-06-27 06:50:02.586260080,-18.0,-63.0,0.0
1904-01-01 00:33:55.806300094,E4_Acc,2024-06-27 06:50:02.617520094,-17.0,-63.0,1.0
1904-01-01 00:33:55.837550094,E4_Acc,2024-06-27 06:50:02.648770094,-17.0,-62.0,1.0
1904-01-01 00:33:55.868800094,E4_Acc,2024-06-27 06:50:02.680020094,-17.0,-62.0,1.0
1904-01-01 00:33:55.900050094,E4_Acc,2024-06-27 06:50:02.711270094,-17.0,-62.0,1.0
1904-01-01 00:33:55.931300094,E4_Acc,2024-06-27 06:50:02.742520094,-17.0,-62.0,1.0
1904-01-01 00:33:55.962550094,E4_Acc,2024-06-27 06:50:02.773770094,-18.0,-62.0,1.0
1904-01-01 00:33:55.993800094,E4_Acc,2024-06-27 06:50:02.805020094,-18.0,-63.0,1.0
1904-01-01 00:33:56.025060107,E4_Acc,2024-06-27 06:50:02.836280107,-18.0,-63.0,1.0
1904-01-01 00:33:56.056310107,E4_Acc,2024-06-27 06:50:02.867530107,-17.0,-62.0,1.0
1904-01-01 00:33:56.087560107,E4_Acc,2024-06-27 06:50:02.898780107,-18.0,-61.0,1.0
1904-01-01 00:33:56.118810107,E4_Acc,2024-06-27 06:50:02.930030107,-17.0,-62.0,1.0
1904-01-01 00:33:56.150060107,E4_Acc,2024-06-27 06:50:02.961280107,-17.0,-62.0,1.0
1904-01-01 00:33:56.181310107,E4_Acc,2024-06-27 06:50:02.992530107,-18.0,-63.0,1.0
1904-01-01 00:33:56.212569883,E4_Acc,2024-06-27 06:50:03.023789883,-18.0,-63.0,1.0
1904-01-01 00:33:56.243819883,E4_Acc,2024-06-27 06:50:03.055039883,-17.0,-63.0,1.0
1904-01-01 00:33:56.275069883,E4_Acc,2024-06-27 06:50:03.086289883,-16.0,-62.0,1.0
1904-01-01 00:33:56.306319883,E4_Acc,2024-06-27 06:50:03.117539883,-17.0,-61.0,1.0
1904-01-01 00:33:56.337569883,E4_Acc,2024-06-27 06:50:03.148789883,-18.0,-62.0,1.0
1904-01-01 00:33:56.368819883,E4_Acc,2024-06-27 06:50:03.180039883,-18.0,-63.0,1.0
1904-01-01 00:33:56.400069883,E4_Acc,2024-06-27 06:50:03.211289883,-18.0,-63.0,1.0
1904-01-01 00:33:56.431329896,E4_Acc,2024-06-27 06:50:03.242549896,-18.0,-63.0,0.0
1904-01-01 00:33:56.462579896,E4_Acc,2024-06-27 06:50:03.273799896,-17.0,-62.0,1.0
1904-01-01 00:33:56.493829896,E4_Acc,2024-06-27 06:50:03.305049896,-17.0,-62.0,1.0
1904-01-01 00:33:56.525079896,E4_Acc,2024-06-27 06:50:03.336299896,-18.0,-62.0,1.0
1904-01-01 00:33:56.556329896,E4_Acc,2024-06-27 06:50:03.367549896,-18.0,-63.0,1.0
1904-01-01 00:33:56.587579896,E4_Acc,2024-06-27 06:50:03.398799896,-18.0,-63.0,1.0
1904-01-01 00:33:56.618829896,E4_Acc,2024-06-27 06:50:03.430049896,-18.0,-62.0,1.0
1904-01-01 00:33:56.650089910,E4_Acc,2024-06-27 06:50:03.461309910,-18.0,-62.0,1.0
1904-01-01 00:33:56.681339910,E4_Acc,2024-06-27 06:50:03.492559910,-18.0,-62.0,1.0
1904-01-01 00:33:56.712589910,E4_Acc,2024-06-27 06:50:03.523809910,-18.0,-62.0,2.0
1904-01-01 00:33:56.743839910,E4_Acc,2024-06-27 06:50:03.555059910,-18.0,-62.0,1.0
1904-01-01 00:33:56.775089910,E4_Acc,2024-06-27 06:50:03.586309910,-17.0,-63.0,1.0
1904-01-01 00:33:56.806339910,E4_Acc,2024-06-27 06:50:03.617559910,-17.0,-63.0,1.0
1904-01-01 00:33:56.837589910,E4_Acc,2024-06-27 06:50:03.648809910,-18.0,-63.0,1.0
1904-01-01 00:33:56.868849923,E4_Acc,2024-06-27 06:50:03.680069923,-18.0,-63.0,1.0
1904-01-01 00:33:56.900099923,E4_Acc,2024-06-27 06:50:03.711319923,-17.0,-62.0,1.0
1904-01-01 00:33:56.931349923,E4_Acc,2024-06-27 06:50:03.742569923,-17.0,-62.0,2.0
1904-01-01 00:33:56.962599923,E4_Acc,2024-06-27 06:50:03.773819923,-17.0,-63.0,2.0
1904-01-01 00:33:56.993849923,E4_Acc,2024-06-27 06:50:03.805069923,-17.0,-63.0,1.0
1904-01-01 00:33:57.025099923,E4_Acc,2024-06-27 06:50:03.836319923,-17.0,-63.0,1.0
1904-01-01 00:33:57.056349923,E4_Acc,2024-06-27 06:50:03.867569923,-17.0,-63.0,1.0
1904-01-01 00:33:57.087609937,E4_Acc,2024-06-27 06:50:03.898829937,-17.0,-62.0,1.0
1904-01-01 00:33:57.118859937,E4_Acc,2024-06-27 06:50:03.930079937,-17.0,-61.0,1.0
1904-01-01 00:33:57.150109937,E4_Acc,2024-06-27 06:50:03.961329937,-17.0,-62.0,1.0
1904-01-01 00:33:57.181359937,E4_Acc,2024-06-27 06:50:03.992579937,-18.0,-63.0,1.0
1904-01-01 00:33:57.212609937,E4_Acc,2024-06-27 06:50:04.023829937,-18.0,-63.0,1.0
1904-01-01 00:33:57.243859937,E4_Acc,2024-06-27 06:50:04.055079937,-17.0,-62.0,1.0
1904-01-01 00:33:57.275109937,E4_Acc,2024-06-27 06:50:04.086329937,-17.0,-62.0,1.0
1904-01-01 00:33:57.306369951,E4_Acc,2024-06-27 06:50:04.117589951,-17.0,-61.0,1.0
1904-01-01 00:33:57.337619951,E4_Acc,2024-06-27 06:50:04.148839951,-17.0,-62.0,1.0
1904-01-01 00:33:57.368869951,E4_Acc,2024-06-27 06:50:04.180089951,-18.0,-63.0,1.0
1904-01-01 00:33:57.400119951,E4_Acc,2024-06-27 06:50:04.211339951,-18.0,-62.0,1.0
1904-01-01 00:33:57.431369951,E4_Acc,2024-06-27 06:50:04.242589951,-18.0,-62.0,1.0
1904-01-01 00:33:57.462619951,E4_Acc,2024-06-27 06:50:04.273839951,-18.0,-62.0,1.0
1904-01-01 00:33:57.493869951,E4_Acc,2024-06-27 06:50:04.305089951,-18.0,-62.0,1.0
1904-01-01 00:33:57.525129964,E4_Acc,2024-06-27 06:50:04.336349964,-19.0,-62.0,1.0
1904-01-01 00:33:57.556379964,E4_Acc,2024-06-27 06:50:04.367599964,-18.0,-62.0,2.0
1904-01-01 00:33:57.587629964,E4_Acc,2024-06-27 06:50:04.398849964,-18.0,-62.0,1.0
1904-01-01 00:33:57.618879964,E4_Acc,2024-06-27 06:50:04.430099964,-17.0,-62.0,1.0
1904-01-01 00:33:57.650129964,E4_Acc,2024-06-27 06:50:04.461349964,-17.0,-62.0,1.0
1904-01-01 00:33:57.681379964,E4_Acc,2024-06-27 06:50:04.492599964,-17.0,-63.0,1.0
1904-01-01 00:33:57.712629963,E4_Acc,2024-06-27 06:50:04.523849963,-18.0,-62.0,1.0
1904-01-01 00:33:57.743889978,E4_Acc,2024-06-27 06:50:04.555109978,-18.0,-63.0,1.0
1904-01-01 00:33:57.775139978,E4_Acc,2024-06-27 06:50:04.586359978,-17.0,-62.0,1.0
1904-01-01 00:33:57.806389978,E4_Acc,2024-06-27 06:50:04.617609978,-17.0,-62.0,1.0
1904-01-01 00:33:57.837639978,E4_Acc,2024-06-27 06:50:04.648859978,-17.0,-62.0,1.0
1904-01-01 00:33:57.868889978,E4_Acc,2024-06-27 06:50:04.680109978,-18.0,-63.0,1.0
1904-01-01 00:33:57.900139978,E4_Acc,2024-06-27 06:50:04.711359978,-18.0,-63.0,1.0
1904-01-01 00:33:57.931389978,E4_Acc,2024-06-27 06:50:04.742609978,-18.0,-63.0,1.0
1904-01-01 00:33:57.962649991,E4_Acc,2024-06-27 06:50:04.773869991,-18.0,-61.0,1.0
1904-01-01 00:33:57.993899991,E4_Acc,2024-06-27 06:50:04.805119991,-18.0,-61.0,1.0
1904-01-01 00:33:58.025149991,E4_Acc,2024-06-27 06:50:04.836369991,-18.0,-62.0,1.0
1904-01-01 00:33:58.056399991,E4_Acc,2024-06-27 06:50:04.867619991,-19.0,-62.0,1.0
1904-01-01 00:33:58.087649991,E4_Acc,2024-06-27 06:50:04.898869991,-19.0,-62.0,1.0
1904-01-01 00:33:58.118899991,E4_Acc,2024-06-27 06:50:04.930119991,-17.0,-63.0,1.0
1904-01-01 00:33:58.150149991,E4_Acc,2024-06-27 06:50:04.961369991,-17.0,-62.0,1.0
1904-01-01 00:33:58.181410005,E4_Acc,2024-06-27 06:50:04.992630005,-18.0,-61.0,1.0
1904-01-01 00:33:58.212660005,E4_Acc,2024-06-27 06:50:05.023880005,-18.0,-62.0,1.0
1904-01-01 00:33:58.243910005,E4_Acc,2024-06-27 06:50:05.055130005,-19.0,-62.0,1.0
1904-01-01 00:33:58.275160005,E4_Acc,2024-06-27 06:50:05.086380005,-18.0,-62.0,1.0
1904-01-01 00:33:58.306410005,E4_Acc,2024-06-27 06:50:05.117630005,-18.0,-62.0,1.0
1904-01-01 00:33:58.337660005,E4_Acc,2024-06-27 06:50:05.148880005,-18.0,-63.0,1.0
1904-01-01 00:33:58.368920018,E4_Acc,2024-06-27 06:50:05.180140018,-18.0,-63.0,1.0
1904-01-01 00:33:58.400170018,E4_Acc,2024-06-27 06:50:05.211390018,-18.0,-62.0,1.0
1904-01-01 00:33:58.431420018,E4_Acc,2024-06-27 06:50:05.242640018,-18.0,-62.0,1.0
1904-01-01 00:33:58.462670018,E4_Acc,2024-06-27 06:50:05.273890018,-18.0,-62.0,1.0
1904-01-01 00:33:58.493920018,E4_Acc,2024-06-27 06:50:05.305140018,-18.0,-62.0,1.0
1904-01-01 00:33:58.525170018,E4_Acc,2024-06-27 06:50:05.336390018,-18.0,-62.0,1.0
1904-01-01 00:33:58.556420018,E4_Acc,2024-06-27 06:50:05.367640018,-18.0,-62.0,1.0
1904-01-01 00:33:58.587680032,E4_Acc,2024-06-27 06:50:05.398900032,-18.0,-63.0,0.0
1904-01-01 00:33:58.618930032,E4_Acc,2024-06-27 06:50:05.430150032,-18.0,-63.0,1.0
1904-01-01 00:33:58.650180032,E4_Acc,2024-06-27 06:50:05.461400032,-18.0,-62.0,1.0
1904-01-01 00:33:58.681430032,E4_Acc,2024-06-27 06:50:05.492650032,-19.0,-62.0,1.0
1904-01-01 00:33:58.712680032,E4_Acc,2024-06-27 06:50:05.523900032,-18.0,-61.0,1.0
1904-01-01 00:33:58.743930032,E4_Acc,2024-06-27 06:50:05.555150032,-19.0,-63.0,1.0
1904-01-01 00:33:58.775180032,E4_Acc,2024-06-27 06:50:05.586400032,-19.0,-63.0,1.0
1904-01-01 00:33:58.806440046,E4_Acc,2024-06-27 06:50:05.617660046,-18.0,-62.0,1.0
1904-01-01 00:33:58.837690046,E4_Acc,2024-06-27 06:50:05.648910046,-18.0,-61.0,1.0
1904-01-01 00:33:58.868940046,E4_Acc,2024-06-27 06:50:05.680160046,-17.0,-62.0,1.0
1904-01-01 00:33:58.900190046,E4_Acc,2024-06-27 06:50:05.711410046,-18.0,-63.0,0.0
1904-01-01 00:33:58.931440046,E4_Acc,2024-06-27 06:50:05.742660046,-18.0,-63.0,1.0
1904-01-01 00:33:58.962690046,E4_Acc,2024-06-27 06:50:05.773910046,-17.0,-62.0,1.0
1904-01-01 00:33:58.993940046,E4_Acc,2024-06-27 06:50:05.805160046,-17.0,-62.0,0.0
1904-01-01 00:33:59.025200059,E4_Acc,2024-06-27 06:50:05.836420059,-18.0,-62.0,1.0
1904-01-01 00:33:59.056450059,E4_Acc,2024-06-27 06:50:05.867670059,-19.0,-62.0,1.0
1904-01-01 00:33:59.087700059,E4_Acc,2024-06-27 06:50:05.898920059,-19.0,-62.0,1.0
1904-01-01 00:33:59.118950059,E4_Acc,2024-06-27 06:50:05.930170059,-18.0,-62.0,1.0
1904-01-01 00:33:59.150200059,E4_Acc,2024-06-27 06:50:05.961420059,-18.0,-62.0,2.0
1904-01-01 00:33:59.181450059,E4_Acc,2024-06-27 06:50:05.992670059,-19.0,-62.0,2.0
1904-01-01 00:33:59.212700059,E4_Acc,2024-06-27 06:50:06.023920059,-19.0,-62.0,1.0
1904-01-01 00:33:59.243960073,E4_Acc,2024-06-27 06:50:06.055180073,-18.0,-62.0,1.0
1904-01-01 00:33:59.275210073,E4_Acc,2024-06-27 06:50:06.086430073,-18.0,-62.0,1.0
1904-01-01 00:33:59.306460073,E4_Acc,2024-06-27 06:50:06.117680073,-18.0,-63.0,0.0
1904-01-01 00:33:59.337710073,E4_Acc,2024-06-27 06:50:06.148930073,-18.0,-62.0,1.0
1904-01-01 00:33:59.368960073,E4_Acc,2024-06-27 06:50:06.180180073,-18.0,-62.0,1.0
1904-01-01 00:33:59.400210073,E4_Acc,2024-06-27 06:50:06.211430073,-17.0,-62.0,1.0
1904-01-01 00:33:59.431460073,E4_Acc,2024-06-27 06:50:06.242680073,-18.0,-62.0,0.0
1904-01-01 00:33:59.462720086,E4_Acc,2024-06-27 06:50:06.273940086,-18.0,-63.0,0.0
1904-01-01 00:33:59.493970086,E4_Acc,2024-06-27 06:50:06.305190086,-18.0,-63.0,0.0
1904-01-01 00:33:59.525220086,E4_Acc,2024-06-27 06:50:06.336440086,-18.0,-62.0,0.0
1904-01-01 00:33:59.556470086,E4_Acc,2024-06-27 06:50:06.367690086,-17.0,-62.0,2.0
1904-01-01 00:33:59.587720086,E4_Acc,2024-06-27 06:50:06.398940086,-17.0,-62.0,1.0
1904-01-01 00:33:59.618970086,E4_Acc,2024-06-27 06:50:06.430190086,-19.0,-62.0,2.0
1904-01-01 00:33:59.650220086,E4_Acc,2024-06-27 06:50:06.461440086,-19.0,-62.0,2.0
1904-01-01 00:33:59.681480100,E4_Acc,2024-06-27 06:50:06.492700100,-18.0,-62.0,1.0
1904-01-01 00:33:59.712730100,E4_Acc,2024-06-27 06:50:06.523950100,-18.0,-62.0,1.0
1904-01-01 00:33:59.743980100,E4_Acc,2024-06-27 06:50:06.555200100,-19.0,-62.0,0.0
1904-01-01 00:33:59.775230100,E4_Acc,2024-06-27 06:50:06.586450100,-18.0,-62.0,1.0
1904-01-01 00:33:59.806480100,E4_Acc,2024-06-27 06:50:06.617700100,-18.0,-62.0,0.0
1904-01-01 00:33:59.837730100,E4_Acc,2024-06-27 06:50:06.648950100,-18.0,-62.0,1.0
1904-01-01 00:33:59.868980100,E4_Acc,2024-06-27 06:50:06.680200100,-18.0,-62.0,1.0
1904-01-01 00:33:59.900240114,E4_Acc,2024-06-27 06:50:06.711460114,-17.0,-62.0,1.0
1904-01-01 00:33:59.931490114,E4_Acc,2024-06-27 06:50:06.742710114,-18.0,-62.0,1.0
1904-01-01 00:33:59.962740114,E4_Acc,2024-06-27 06:50:06.773960114,-18.0,-62.0,1.0
1904-01-01 00:33:59.993990114,E4_Acc,2024-06-27 06:50:06.805210114,-19.0,-63.0,1.0
1904-01-01 00:34:00.025240114,E4_Acc,2024-06-27 06:50:06.836460114,-19.0,-62.0,1.0
1904-01-01 00:34:00.056490114,E4_Acc,2024-06-27 06:50:06.867710114,-19.0,-62.0,2.0
1904-01-01 00:34:00.087740114,E4_Acc,2024-06-27 06:50:06.898960114,-18.0,-62.0,1.0
1904-01-01 00:34:00.118999889,E4_Acc,2024-06-27 06:50:06.930219889,-18.0,-62.0,1.0
1904-01-01 00:34:00.150249889,E4_Acc,2024-06-27 06:50:06.961469889,-18.0,-63.0,1.0
1904-01-01 00:34:00.181499889,E4_Acc,2024-06-27 06:50:06.992719889,-18.0,-62.0,1.0
1904-01-01 00:34:00.212749889,E4_Acc,2024-06-27 06:50:07.023969889,-17.0,-62.0,1.0
1904-01-01 00:34:00.243999889,E4_Acc,2024-06-27 06:50:07.055219889,-17.0,-62.0,1.0
1904-01-01 00:34:00.275249889,E4_Acc,2024-06-27 06:50:07.086469889,-17.0,-62.0,1.0
1904-01-01 00:34:00.306499889,E4_Acc,2024-06-27 06:50:07.117719889,-18.0,-62.0,2.0
1904-01-01 00:34:00.337759902,E4_Acc,2024-06-27 06:50:07.148979902,-18.0,-62.0,1.0
1904-01-01 00:34:00.369009902,E4_Acc,2024-06-27 06:50:07.180229902,-18.0,-63.0,1.0
1904-01-01 00:34:00.400259902,E4_Acc,2024-06-27 06:50:07.211479902,-18.0,-62.0,1.0
1904-01-01 00:34:00.431509902,E4_Acc,2024-06-27 06:50:07.242729902,-18.0,-62.0,1.0
1904-01-01 00:34:00.462759902,E4_Acc,2024-06-27 06:50:07.273979902,-18.0,-62.0,1.0
1904-01-01 00:34:00.494009902,E4_Acc,2024-06-27 06:50:07.305229902,-18.0,-62.0,1.0
1904-01-01 00:34:00.525259902,E4_Acc,2024-06-27 06:50:07.336479902,-18.0,-62.0,1.0
1904-01-01 00:34:00.556519916,E4_Acc,2024-06-27 06:50:07.367739916,-19.0,-62.0,1.0
1904-01-01 00:34:00.587769916,E4_Acc,2024-06-27 06:50:07.398989916,-19.0,-62.0,1.0
1904-01-01 00:34:00.619019916,E4_Acc,2024-06-27 06:50:07.430239916,-19.0,-62.0,1.0
1904-01-01 00:34:00.650269916,E4_Acc,2024-06-27 06:50:07.461489916,-18.0,-62.0,1.0
1904-01-01 00:34:00.681519916,E4_Acc,2024-06-27 06:50:07.492739916,-18.0,-62.0,1.0
1904-01-01 00:34:00.712769916,E4_Acc,2024-06-27 06:50:07.523989916,-18.0,-62.0,1.0
1904-01-01 00:34:00.744019916,E4_Acc,2024-06-27 06:50:07.555239916,-18.0,-62.0,1.0
1904-01-01 00:34:00.775279929,E4_Acc,2024-06-27 06:50:07.586499929,-18.0,-63.0,1.0
1904-01-01 00:34:00.806529929,E4_Acc,2024-06-27 06:50:07.617749929,-17.0,-62.0,1.0
1904-01-01 00:34:00.837779929,E4_Acc,2024-06-27 06:50:07.648999929,-17.0,-62.0,1.0
1904-01-01 00:34:00.869029929,E4_Acc,2024-06-27 06:50:07.680249929,-18.0,-62.0,1.0
1904-01-01 00:34:00.900279929,E4_Acc,2024-06-27 06:50:07.711499929,-18.0,-63.0,1.0
1904-01-01 00:34:00.931529929,E4_Acc,2024-06-27 06:50:07.742749929,-18.0,-63.0,1.0
1904-01-01 00:34:00.962779929,E4_Acc,2024-06-27 06:50:07.773999929,-18.0,-62.0,1.0
1904-01-01 00:34:00.994039943,E4_Acc,2024-06-27 06:50:07.805259943,-17.0,-62.0,1.0
1904-01-01 00:34:01.025289943,E4_Acc,2024-06-27 06:50:07.836509943,-17.0,-62.0,1.0
1904-01-01 00:34:01.056539943,E4_Acc,2024-06-27 06:50:07.867759943,-18.0,-63.0,1.0
1904-01-01 00:34:01.087789943,E4_Acc,2024-06-27 06:50:07.899009943,-18.0,-63.0,1.0
1904-01-01 00:34:01.119039943,E4_Acc,2024-06-27 06:50:07.930259943,-18.0,-62.0,1.0
1904-01-01 00:34:01.150289943,E4_Acc,2024-06-27 06:50:07.961509943,-18.0,-62.0,1.0
1904-01-01 00:34:01.181549957,E4_Acc,2024-06-27 06:50:07.992769957,-18.0,-61.0,1.0
1904-01-01 00:34:01.212799957,E4_Acc,2024-06-27 06:50:08.024019957,-18.0,-62.0,1.0
1904-01-01 00:34:01.244049957,E4_Acc,2024-06-27 06:50:08.055269957,-18.0,-63.0,1.0
1904-01-01 00:34:01.275299957,E4_Acc,2024-06-27 06:50:08.086519957,-18.0,-63.0,1.0
1904-01-01 00:34:01.306549957,E4_Acc,2024-06-27 06:50:08.117769957,-18.0,-63.0,1.0
1904-01-01 00:34:01.337799957,E4_Acc,2024-06-27 06:50:08.149019957,-18.0,-62.0,1.0
1904-01-01 00:34:01.369049957,E4_Acc,2024-06-27 06:50:08.180269957,-18.0,-61.0,1.0
1904-01-01 00:34:01.400309970,E4_Acc,2024-06-27 06:50:08.211529970,-18.0,-62.0,1.0
1904-01-01 00:34:01.431559970,E4_Acc,2024-06-27 06:50:08.242779970,-18.0,-63.0,1.0
1904-01-01 00:34:01.462809970,E4_Acc,2024-06-27 06:50:08.274029970,-18.0,-63.0,2.0
1904-01-01 00:34:01.494059970,E4_Acc,2024-06-27 06:50:08.305279970,-17.0,-62.0,1.0
1904-01-01 00:34:01.525309970,E4_Acc,2024-06-27 06:50:08.336529970,-17.0,-62.0,1.0
1904-01-01 00:34:01.556559970,E4_Acc,2024-06-27 06:50:08.367779970,-17.0,-62.0,1.0
1904-01-01 00:34:01.587809970,E4_Acc,2024-06-27 06:50:08.399029970,-17.0,-62.0,1.0
1904-01-01 00:34:01.619069984,E4_Acc,2024-06-27 06:50:08.430289984,-17.0,-63.0,1.0
1904-01-01 00:34:01.650319984,E4_Acc,2024-06-27 06:50:08.461539984,-17.0,-62.0,1.0
1904-01-01 00:34:01.681569984,E4_Acc,2024-06-27 06:50:08.492789984,-17.0,-62.0,1.0
1904-01-01 00:34:01.712819983,E4_Acc,2024-06-27 06:50:08.524039983,-18.0,-62.0,1.0
1904-01-01 00:34:01.744069984,E4_Acc,2024-06-27 06:50:08.555289984,-19.0,-63.0,1.0
1904-01-01 00:34:01.775319984,E4_Acc,2024-06-27 06:50:08.586539984,-18.0,-62.0,1.0
1904-01-01 00:34:01.806569984,E4_Acc,2024-06-27 06:50:08.617789984,-17.0,-62.0,1.0
1904-01-01 00:34:01.837829997,E4_Acc,2024-06-27 06:50:08.649049997,-17.0,-62.0,1.0
1904-01-01 00:34:01.869079997,E4_Acc,2024-06-27 06:50:08.680299997,-17.0,-62.0,1.0
1904-01-01 00:34:01.900329997,E4_Acc,2024-06-27 06:50:08.711549997,-18.0,-63.0,1.0
1904-01-01 00:34:01.931579997,E4_Acc,2024-06-27 06:50:08.742799997,-17.0,-63.0,1.0
1904-01-01 00:34:01.962829997,E4_Acc,2024-06-27 06:50:08.774049997,-17.0,-62.0,1.0
1904-01-01 00:34:01.994079997,E4_Acc,2024-06-27 06:50:08.805299997,-18.0,-62.0,1.0
1904-01-01 00:34:02.025329997,E4_Acc,2024-06-27 06:50:08.836549997,-18.0,-62.0,1.0
1904-01-01 00:34:02.056590011,E4_Acc,2024-06-27 06:50:08.867810011,-18.0,-62.0,1.0
1904-01-01 00:34:02.087840011,E4_Acc,2024-06-27 06:50:08.899060011,-18.0,-62.0,1.0
1904-01-01 00:34:02.119090011,E4_Acc,2024-06-27 06:50:08.930310011,-17.0,-62.0,1.0
