Seconds,Stream,E4_Seconds,AccX,AccY,AccZ
1904-01-01 00:17:56.130976111,E4_Acc,2024-06-24 09:42:27.773080111,8.0,63.0,10.0
1904-01-01 00:17:56.162226111,E4_Acc,2024-06-24 09:42:27.804330111,9.0,63.0,10.0
1904-01-01 00:17:56.193476111,E4_Acc,2024-06-24 09:42:27.835580111,8.0,63.0,10.0
1904-01-01 00:17:56.224735886,E4_Acc,2024-06-24 09:42:27.866839886,9.0,63.0,10.0
1904-01-01 00:17:56.255985886,E4_Acc,2024-06-24 09:42:27.898089886,8.0,63.0,10.0
1904-01-01 00:17:56.287235886,E4_Acc,2024-06-24 09:42:27.929339886,8.0,63.0,10.0
1904-01-01 00:17:56.318485886,E4_Acc,2024-06-24 09:42:27.960589886,8.0,63.0,11.0
1904-01-01 00:17:56.349735886,E4_Acc,2024-06-24 09:42:27.991839886,8.0,63.0,11.0
1904-01-01 00:17:56.380985886,E4_Acc,2024-06-24 09:42:28.023089886,8.0,63.0,10.0
1904-01-01 00:17:56.412235886,E4_Acc,2024-06-24 09:42:28.054339886,8.0,63.0,10.0
1904-01-01 00:17:56.443495899,E4_Acc,2024-06-24 09:42:28.085599899,8.0,64.0,11.0
1904-01-01 00:17:56.474745899,E4_Acc,2024-06-24 09:42:28.116849899,8.0,63.0,10.0
1904-01-01 00:17:56.505995899,E4_Acc,2024-06-24 09:42:28.148099899,8.0,63.0,10.0
1904-01-01 00:17:56.537245899,E4_Acc,2024-06-24 09:42:28.179349899,8.0,63.0,11.0
1904-01-01 00:17:56.568495899,E4_Acc,2024-06-24 09:42:28.210599899,8.0,63.0,10.0
1904-01-01 00:17:56.599745899,E4_Acc,2024-06-24 09:42:28.241849899,9.0,63.0,10.0
1904-01-01 00:17:56.630995899,E4_Acc,2024-06-24 09:42:28.273099899,9.0,63.0,10.0
1904-01-01 00:17:56.662255913,E4_Acc,2024-06-24 09:42:28.304359913,9.0,63.0,10.0
1904-01-01 00:17:56.693505913,E4_Acc,2024-06-24 09:42:28.335609913,8.0,63.0,10.0
1904-01-01 00:17:56.724755913,E4_Acc,2024-06-24 09:42:28.366859913,8.0,63.0,11.0
1904-01-01 00:17:56.756005913,E4_Acc,2024-06-24 09:42:28.398109913,9.0,63.0,11.0
1904-01-01 00:17:56.787255913,E4_Acc,2024-06-24 09:42:28.429359913,8.0,63.0,10.0
1904-01-01 00:17:56.818505913,E4_Acc,2024-06-24 09:42:28.460609913,8.0,63.0,11.0
1904-01-01 00:17:56.849755913,E4_Acc,2024-06-24 09:42:28.491859913,8.0,63.0,10.0
1904-01-01 00:17:56.881015926,E4_Acc,2024-06-24 09:42:28.523119926,8.0,63.0,11.0
1904-01-01 00:17:56.912265926,E4_Acc,2024-06-24 09:42:28.554369926,8.0,63.0,10.0
1904-01-01 00:17:56.943515926,E4_Acc,2024-06-24 09:42:28.585619926,8.0,63.0,10.0
1904-01-01 00:17:56.974765926,E4_Acc,2024-06-24 09:42:28.616869926,8.0,63.0,10.0
1904-01-01 00:17:57.006015926,E4_Acc,2024-06-24 09:42:28.648119926,8.0,63.0,11.0
1904-01-01 00:17:57.037265926,E4_Acc,2024-06-24 09:42:28.679369926,8.0,63.0,10.0
1904-01-01 00:17:57.068515926,E4_Acc,2024-06-24 09:42:28.710619926,8.0,63.0,11.0
1904-01-01 00:17:57.099775940,E4_Acc,2024-06-24 09:42:28.741879940,9.0,63.0,11.0
1904-01-01 00:17:57.131025940,E4_Acc,2024-06-24 09:42:28.773129940,9.0,63.0,11.0
1904-01-01 00:17:57.162275940,E4_Acc,2024-06-24 09:42:28.804379940,9.0,63.0,11.0
1904-01-01 00:17:57.193525940,E4_Acc,2024-06-24 09:42:28.835629940,9.0,63.0,11.0
1904-01-01 00:17:57.224775940,E4_Acc,2024-06-24 09:42:28.866879940,8.0,63.0,10.0
1904-01-01 00:17:57.256025940,E4_Acc,2024-06-24 09:42:28.898129940,9.0,63.0,11.0
1904-01-01 00:17:57.287275940,E4_Acc,2024-06-24 09:42:28.929379940,8.0,63.0,11.0
1904-01-01 00:17:57.318535954,E4_Acc,2024-06-24 09:42:28.960639954,8.0,63.0,10.0
1904-01-01 00:17:57.349785954,E4_Acc,2024-06-24 09:42:28.991889954,8.0,63.0,10.0
1904-01-01 00:17:57.381035954,E4_Acc,2024-06-24 09:42:29.023139954,8.0,63.0,10.0
1904-01-01 00:17:57.412285954,E4_Acc,2024-06-24 09:42:29.054389954,8.0,63.0,11.0
1904-01-01 00:17:57.443535954,E4_Acc,2024-06-24 09:42:29.085639954,8.0,63.0,11.0
1904-01-01 00:17:57.474785954,E4_Acc,2024-06-24 09:42:29.116889954,8.0,63.0,11.0
1904-01-01 00:17:57.506035954,E4_Acc,2024-06-24 09:42:29.148139954,8.0,63.0,11.0
1904-01-01 00:17:57.537295967,E4_Acc,2024-06-24 09:42:29.179399967,8.0,63.0,11.0
1904-01-01 00:17:57.568545967,E4_Acc,2024-06-24 09:42:29.210649967,9.0,63.0,11.0
1904-01-01 00:17:57.599795967,E4_Acc,2024-06-24 09:42:29.241899967,8.0,63.0,11.0
1904-01-01 00:17:57.631045967,E4_Acc,2024-06-24 09:42:29.273149967,8.0,63.0,11.0
1904-01-01 00:17:57.662295967,E4_Acc,2024-06-24 09:42:29.304399967,9.0,63.0,11.0
1904-01-01 00:17:57.693545967,E4_Acc,2024-06-24 09:42:29.335649967,8.0,63.0,11.0
1904-01-01 00:17:57.724805981,E4_Acc,2024-06-24 09:42:29.366909981,8.0,63.0,11.0
1904-01-01 00:17:57.756055981,E4_Acc,2024-06-24 09:42:29.398159981,8.0,63.0,10.0
1904-01-01 00:17:57.787305981,E4_Acc,2024-06-24 09:42:29.429409981,8.0,63.0,11.0
1904-01-01 00:17:57.818555981,E4_Acc,2024-06-24 09:42:29.460659981,8.0,63.0,11.0
1904-01-01 00:17:57.849805981,E4_Acc,2024-06-24 09:42:29.491909981,8.0,63.0,11.0
1904-01-01 00:17:57.881055981,E4_Acc,2024-06-24 09:42:29.523159981,8.0,63.0,11.0
1904-01-01 00:17:57.912305981,E4_Acc,2024-06-24 09:42:29.554409981,8.0,63.0,11.0
1904-01-01 00:17:57.943565994,E4_Acc,2024-06-24 09:42:29.585669994,8.0,63.0,11.0
1904-01-01 00:17:57.974815994,E4_Acc,2024-06-24 09:42:29.616919994,8.0,63.0,11.0
1904-01-01 00:17:58.006065994,E4_Acc,2024-06-24 09:42:29.648169994,8.0,63.0,11.0
1904-01-01 00:17:58.037315994,E4_Acc,2024-06-24 09:42:29.679419994,8.0,63.0,11.0
1904-01-01 00:17:58.068565994,E4_Acc,2024-06-24 09:42:29.710669994,9.0,63.0,11.0
1904-01-01 00:17:58.099815994,E4_Acc,2024-06-24 09:42:29.741919994,9.0,63.0,11.0
1904-01-01 00:17:58.131065994,E4_Acc,2024-06-24 09:42:29.773169994,9.0,63.0,11.0
1904-01-01 00:17:58.162326008,E4_Acc,2024-06-24 09:42:29.804430008,9.0,63.0,11.0
1904-01-01 00:17:58.193576008,E4_Acc,2024-06-24 09:42:29.835680008,9.0,63.0,11.0
1904-01-01 00:17:58.224826008,E4_Acc,2024-06-24 09:42:29.866930008,9.0,63.0,11.0
1904-01-01 00:17:58.256076008,E4_Acc,2024-06-24 09:42:29.898180008,9.0,63.0,11.0
1904-01-01 00:17:58.287326008,E4_Acc,2024-06-24 09:42:29.929430008,8.0,63.0,11.0
1904-01-01 00:17:58.318576008,E4_Acc,2024-06-24 09:42:29.960680008,8.0,63.0,11.0
1904-01-01 00:17:58.349826008,E4_Acc,2024-06-24 09:42:29.991930008,8.0,63.0,11.0
1904-01-01 00:17:58.381086022,E4_Acc,2024-06-24 09:42:30.023190022,8.0,63.0,11.0
1904-01-01 00:17:58.412336022,E4_Acc,2024-06-24 09:42:30.054440022,8.0,63.0,11.0
1904-01-01 00:17:58.443586022,E4_Acc,2024-06-24 09:42:30.085690022,8.0,63.0,11.0
1904-01-01 00:17:58.474836022,E4_Acc,2024-06-24 09:42:30.116940022,8.0,63.0,11.0
1904-01-01 00:17:58.506086022,E4_Acc,2024-06-24 09:42:30.148190022,8.0,63.0,11.0
1904-01-01 00:17:58.537336022,E4_Acc,2024-06-24 09:42:30.179440022,8.0,63.0,11.0
1904-01-01 00:17:58.568586022,E4_Acc,2024-06-24 09:42:30.210690022,8.0,63.0,11.0
1904-01-01 00:17:58.599846035,E4_Acc,2024-06-24 09:42:30.241950035,8.0,63.0,11.0
1904-01-01 00:17:58.631096035,E4_Acc,2024-06-24 09:42:30.273200035,8.0,63.0,11.0
1904-01-01 00:17:58.662346035,E4_Acc,2024-06-24 09:42:30.304450035,8.0,63.0,11.0
1904-01-01 00:17:58.693596035,E4_Acc,2024-06-24 09:42:30.335700035,8.0,63.0,11.0
1904-01-01 00:17:58.724846035,E4_Acc,2024-06-24 09:42:30.366950035,8.0,63.0,11.0
1904-01-01 00:17:58.756096035,E4_Acc,2024-06-24 09:42:30.398200035,9.0,63.0,11.0
1904-01-01 00:17:58.787346035,E4_Acc,2024-06-24 09:42:30.429450035,9.0,63.0,11.0
1904-01-01 00:17:58.818606049,E4_Acc,2024-06-24 09:42:30.460710049,8.0,63.0,11.0
1904-01-01 00:17:58.849856049,E4_Acc,2024-06-24 09:42:30.491960049,8.0,63.0,11.0
1904-01-01 00:17:58.881106049,E4_Acc,2024-06-24 09:42:30.523210049,8.0,63.0,11.0
1904-01-01 00:17:58.912356049,E4_Acc,2024-06-24 09:42:30.554460049,8.0,63.0,11.0
1904-01-01 00:17:58.943606049,E4_Acc,2024-06-24 09:42:30.585710049,8.0,63.0,11.0
1904-01-01 00:17:58.974856049,E4_Acc,2024-06-24 09:42:30.616960049,8.0,63.0,11.0
1904-01-01 00:17:59.006106049,E4_Acc,2024-06-24 09:42:30.648210049,8.0,63.0,11.0
1904-01-01 00:17:59.037366062,E4_Acc,2024-06-24 09:42:30.679470062,8.0,63.0,11.0
1904-01-01 00:17:59.068616062,E4_Acc,2024-06-24 09:42:30.710720062,8.0,63.0,11.0
1904-01-01 00:17:59.099866062,E4_Acc,2024-06-24 09:42:30.741970062,8.0,63.0,11.0
1904-01-01 00:17:59.131116062,E4_Acc,2024-06-24 09:42:30.773220062,8.0,63.0,11.0
1904-01-01 00:17:59.162366062,E4_Acc,2024-06-24 09:42:30.804470062,8.0,63.0,11.0
1904-01-01 00:17:59.193616062,E4_Acc,2024-06-24 09:42:30.835720062,8.0,63.0,10.0
1904-01-01 00:17:59.224866062,E4_Acc,2024-06-24 09:42:30.866970062,8.0,63.0,11.0
1904-01-01 00:17:59.256126076,E4_Acc,2024-06-24 09:42:30.898230076,8.0,63.0,11.0
1904-01-01 00:17:59.287376076,E4_Acc,2024-06-24 09:42:30.929480076,8.0,63.0,11.0
1904-01-01 00:17:59.318626076,E4_Acc,2024-06-24 09:42:30.960730076,8.0,63.0,11.0
1904-01-01 00:17:59.349876076,E4_Acc,2024-06-24 09:42:30.991980076,8.0,63.0,11.0
1904-01-01 00:17:59.381126076,E4_Acc,2024-06-24 09:42:31.023230076,8.0,63.0,11.0
1904-01-01 00:17:59.412376076,E4_Acc,2024-06-24 09:42:31.054480076,8.0,63.0,11.0
1904-01-01 00:17:59.443626076,E4_Acc,2024-06-24 09:42:31.085730076,8.0,63.0,11.0
1904-01-01 00:17:59.474886089,E4_Acc,2024-06-24 09:42:31.116990089,8.0,63.0,11.0
1904-01-01 00:17:59.506136089,E4_Acc,2024-06-24 09:42:31.148240089,8.0,63.0,11.0
1904-01-01 00:17:59.537386089,E4_Acc,2024-06-24 09:42:31.179490089,8.0,63.0,11.0
1904-01-01 00:17:59.568636089,E4_Acc,2024-06-24 09:42:31.210740089,8.0,63.0,11.0
1904-01-01 00:17:59.599886089,E4_Acc,2024-06-24 09:42:31.241990089,8.0,63.0,11.0
1904-01-01 00:17:59.631136089,E4_Acc,2024-06-24 09:42:31.273240089,8.0,63.0,11.0
1904-01-01 00:17:59.662386089,E4_Acc,2024-06-24 09:42:31.304490089,8.0,63.0,11.0
1904-01-01 00:17:59.693646103,E4_Acc,2024-06-24 09:42:31.335750103,8.0,63.0,11.0
1904-01-01 00:17:59.724896103,E4_Acc,2024-06-24 09:42:31.367000103,8.0,63.0,10.0
1904-01-01 00:17:59.756146103,E4_Acc,2024-06-24 09:42:31.398250103,8.0,63.0,10.0
1904-01-01 00:17:59.787396103,E4_Acc,2024-06-24 09:42:31.429500103,8.0,63.0,11.0
1904-01-01 00:17:59.818646103,E4_Acc,2024-06-24 09:42:31.460750103,8.0,63.0,10.0
1904-01-01 00:17:59.849896103,E4_Acc,2024-06-24 09:42:31.492000103,8.0,63.0,11.0
1904-01-01 00:17:59.881146102,E4_Acc,2024-06-24 09:42:31.523250102,8.0,63.0,10.0
1904-01-01 00:17:59.912406117,E4_Acc,2024-06-24 09:42:31.554510117,8.0,63.0,10.0
1904-01-01 00:17:59.943656117,E4_Acc,2024-06-24 09:42:31.585760117,8.0,63.0,11.0
1904-01-01 00:17:59.974906117,E4_Acc,2024-06-24 09:42:31.617010117,8.0,63.0,11.0
1904-01-01 00:18:00.006156117,E4_Acc,2024-06-24 09:42:31.648260117,8.0,63.0,11.0
1904-01-01 00:18:00.037406117,E4_Acc,2024-06-24 09:42:31.679510117,8.0,63.0,10.0
1904-01-01 00:18:00.068656117,E4_Acc,2024-06-24 09:42:31.710760117,8.0,63.0,11.0
1904-01-01 00:18:00.099915892,E4_Acc,2024-06-24 09:42:31.742019892,8.0,63.0,11.0
1904-01-01 00:18:00.131165892,E4_Acc,2024-06-24 09:42:31.773269892,8.0,63.0,11.0
1904-01-01 00:18:00.162415892,E4_Acc,2024-06-24 09:42:31.804519892,8.0,63.0,11.0
1904-01-01 00:18:00.193665892,E4_Acc,2024-06-24 09:42:31.835769892,8.0,63.0,11.0
1904-01-01 00:18:00.224915892,E4_Acc,2024-06-24 09:42:31.867019892,9.0,63.0,11.0
1904-01-01 00:18:00.256165892,E4_Acc,2024-06-24 09:42:31.898269892,9.0,63.0,11.0
1904-01-01 00:18:00.287415892,E4_Acc,2024-06-24 09:42:31.929519892,8.0,63.0,11.0
1904-01-01 00:18:00.318675905,E4_Acc,2024-06-24 09:42:31.960779905,8.0,63.0,11.0
1904-01-01 00:18:00.349925905,E4_Acc,2024-06-24 09:42:31.992029905,8.0,63.0,11.0
1904-01-01 00:18:00.381175905,E4_Acc,2024-06-24 09:42:32.023279905,8.0,63.0,11.0
1904-01-01 00:18:00.412425905,E4_Acc,2024-06-24 09:42:32.054529905,8.0,63.0,11.0
1904-01-01 00:18:00.443675905,E4_Acc,2024-06-24 09:42:32.085779905,8.0,63.0,11.0
1904-01-01 00:18:00.474925905,E4_Acc,2024-06-24 09:42:32.117029905,8.0,63.0,11.0
1904-01-01 00:18:00.506175905,E4_Acc,2024-06-24 09:42:32.148279905,8.0,63.0,11.0
1904-01-01 00:18:00.537435919,E4_Acc,2024-06-24 09:42:32.179539919,8.0,63.0,10.0
1904-01-01 00:18:00.568685919,E4_Acc,2024-06-24 09:42:32.210789919,8.0,63.0,10.0
1904-01-01 00:18:00.599935919,E4_Acc,2024-06-24 09:42:32.242039919,8.0,63.0,10.0
1904-01-01 00:18:00.631185919,E4_Acc,2024-06-24 09:42:32.273289919,8.0,63.0,10.0
1904-01-01 00:18:00.662435919,E4_Acc,2024-06-24 09:42:32.304539919,8.0,63.0,10.0
1904-01-01 00:18:00.693685919,E4_Acc,2024-06-24 09:42:32.335789919,8.0,63.0,10.0
1904-01-01 00:18:00.724935919,E4_Acc,2024-06-24 09:42:32.367039919,8.0,63.0,10.0
1904-01-01 00:18:00.756195932,E4_Acc,2024-06-24 09:42:32.398299932,8.0,63.0,10.0
1904-01-01 00:18:00.787445932,E4_Acc,2024-06-24 09:42:32.429549932,8.0,63.0,10.0
1904-01-01 00:18:00.818695932,E4_Acc,2024-06-24 09:42:32.460799932,8.0,63.0,11.0
1904-01-01 00:18:00.849945932,E4_Acc,2024-06-24 09:42:32.492049932,8.0,63.0,10.0
1904-01-01 00:18:00.881195932,E4_Acc,2024-06-24 09:42:32.523299932,8.0,63.0,10.0
1904-01-01 00:18:00.912445932,E4_Acc,2024-06-24 09:42:32.554549932,8.0,63.0,10.0
1904-01-01 00:18:00.943695932,E4_Acc,2024-06-24 09:42:32.585799932,8.0,63.0,10.0
1904-01-01 00:18:00.974955946,E4_Acc,2024-06-24 09:42:32.617059946,8.0,63.0,10.0
1904-01-01 00:18:01.006205946,E4_Acc,2024-06-24 09:42:32.648309946,8.0,63.0,10.0
1904-01-01 00:18:01.037455946,E4_Acc,2024-06-24 09:42:32.679559946,8.0,63.0,10.0
1904-01-01 00:18:01.068705946,E4_Acc,2024-06-24 09:42:32.710809946,8.0,63.0,10.0
1904-01-01 00:18:01.099955946,E4_Acc,2024-06-24 09:42:32.742059946,8.0,63.0,10.0
1904-01-01 00:18:01.131205946,E4_Acc,2024-06-24 09:42:32.773309946,8.0,63.0,10.0
1904-01-01 00:18:01.162455946,E4_Acc,2024-06-24 09:42:32.804559946,8.0,63.0,10.0
1904-01-01 00:18:01.193715960,E4_Acc,2024-06-24 09:42:32.835819960,8.0,63.0,10.0
1904-01-01 00:18:01.224965960,E4_Acc,2024-06-24 09:42:32.867069960,9.0,63.0,10.0
1904-01-01 00:18:01.256215960,E4_Acc,2024-06-24 09:42:32.898319960,8.0,63.0,10.0
1904-01-01 00:18:01.287465960,E4_Acc,2024-06-24 09:42:32.929569960,8.0,63.0,10.0
1904-01-01 00:18:01.318715960,E4_Acc,2024-06-24 09:42:32.960819960,9.0,63.0,10.0
1904-01-01 00:18:01.349965960,E4_Acc,2024-06-24 09:42:32.992069960,8.0,63.0,10.0
1904-01-01 00:18:01.381215960,E4_Acc,2024-06-24 09:42:33.023319960,8.0,63.0,10.0
1904-01-01 00:18:01.412475973,E4_Acc,2024-06-24 09:42:33.054579973,8.0,63.0,10.0
1904-01-01 00:18:01.443725973,E4_Acc,2024-06-24 09:42:33.085829973,8.0,63.0,10.0
1904-01-01 00:18:01.474975973,E4_Acc,2024-06-24 09:42:33.117079973,8.0,63.0,10.0
1904-01-01 00:18:01.506225973,E4_Acc,2024-06-24 09:42:33.148329973,8.0,63.0,10.0
1904-01-01 00:18:01.537475973,E4_Acc,2024-06-24 09:42:33.179579973,8.0,63.0,10.0
1904-01-01 00:18:01.568725973,E4_Acc,2024-06-24 09:42:33.210829973,8.0,63.0,10.0
1904-01-01 00:18:01.599975973,E4_Acc,2024-06-24 09:42:33.242079973,8.0,63.0,10.0
1904-01-01 00:18:01.631235987,E4_Acc,2024-06-24 09:42:33.273339987,8.0,63.0,10.0
1904-01-01 00:18:01.662485987,E4_Acc,2024-06-24 09:42:33.304589987,8.0,63.0,10.0
1904-01-01 00:18:01.693735987,E4_Acc,2024-06-24 09:42:33.335839987,8.0,63.0,10.0
1904-01-01 00:18:01.724985987,E4_Acc,2024-06-24 09:42:33.367089987,8.0,63.0,10.0
1904-01-01 00:18:01.756235987,E4_Acc,2024-06-24 09:42:33.398339987,8.0,63.0,10.0
1904-01-01 00:18:01.787485987,E4_Acc,2024-06-24 09:42:33.429589987,8.0,63.0,10.0
1904-01-01 00:18:01.818735987,E4_Acc,2024-06-24 09:42:33.460839987,9.0,63.0,11.0
1904-01-01 00:18:01.849996000,E4_Acc,2024-06-24 09:42:33.492100000,9.0,63.0,11.0
1904-01-01 00:18:01.881246000,E4_Acc,2024-06-24 09:42:33.523350000,8.0,63.0,11.0
1904-01-01 00:18:01.912496000,E4_Acc,2024-06-24 09:42:33.554600000,9.0,63.0,11.0
1904-01-01 00:18:01.943746000,E4_Acc,2024-06-24 09:42:33.585850000,9.0,63.0,11.0
1904-01-01 00:18:01.974996000,E4_Acc,2024-06-24 09:42:33.617100000,9.0,63.0,11.0
1904-01-01 00:18:02.006246000,E4_Acc,2024-06-24 09:42:33.648350000,8.0,63.0,11.0
1904-01-01 00:18:02.037496000,E4_Acc,2024-06-24 09:42:33.679600000,8.0,63.0,11.0
1904-01-01 00:18:02.068756014,E4_Acc,2024-06-24 09:42:33.710860014,8.0,63.0,10.0
1904-01-01 00:18:02.100006014,E4_Acc,2024-06-24 09:42:33.742110014,8.0,63.0,10.0
1904-01-01 00:18:02.131256014,E4_Acc,2024-06-24 09:42:33.773360014,8.0,63.0,11.0
1904-01-01 00:18:02.162506014,E4_Acc,2024-06-24 09:42:33.804610014,8.0,63.0,10.0
1904-01-01 00:18:02.193756014,E4_Acc,2024-06-24 09:42:33.835860014,8.0,63.0,10.0
1904-01-01 00:18:02.225006014,E4_Acc,2024-06-24 09:42:33.867110014,8.0,63.0,10.0
1904-01-01 00:18:02.256266028,E4_Acc,2024-06-24 09:42:33.898370028,8.0,63.0,10.0
1904-01-01 00:18:02.287516028,E4_Acc,2024-06-24 09:42:33.929620028,8.0,63.0,10.0
1904-01-01 00:18:02.318766028,E4_Acc,2024-06-24 09:42:33.960870028,8.0,63.0,10.0
1904-01-01 00:18:02.350016028,E4_Acc,2024-06-24 09:42:33.992120028,8.0,63.0,10.0
1904-01-01 00:18:02.381266028,E4_Acc,2024-06-24 09:42:34.023370028,8.0,63.0,11.0
1904-01-01 00:18:02.412516028,E4_Acc,2024-06-24 09:42:34.054620028,8.0,63.0,10.0
1904-01-01 00:18:02.443766028,E4_Acc,2024-06-24 09:42:34.085870028,8.0,63.0,11.0
1904-01-01 00:18:02.475026041,E4_Acc,2024-06-24 09:42:34.117130041,8.0,63.0,11.0
1904-01-01 00:18:02.506276041,E4_Acc,2024-06-24 09:42:34.148380041,8.0,63.0,11.0
1904-01-01 00:18:02.537526041,E4_Acc,2024-06-24 09:42:34.179630041,8.0,63.0,11.0
1904-01-01 00:18:02.568776041,E4_Acc,2024-06-24 09:42:34.210880041,8.0,63.0,10.0
1904-01-01 00:18:02.600026041,E4_Acc,2024-06-24 09:42:34.242130041,8.0,63.0,10.0
1904-01-01 00:18:02.631276041,E4_Acc,2024-06-24 09:42:34.273380041,8.0,63.0,11.0
1904-01-01 00:18:02.662526041,E4_Acc,2024-06-24 09:42:34.304630041,8.0,63.0,11.0
1904-01-01 00:18:02.693786055,E4_Acc,2024-06-24 09:42:34.335890055,8.0,63.0,11.0
1904-01-01 00:18:02.725036055,E4_Acc,2024-06-24 09:42:34.367140055,8.0,63.0,11.0
1904-01-01 00:18:02.756286055,E4_Acc,2024-06-24 09:42:34.398390055,8.0,63.0,10.0
1904-01-01 00:18:02.787536055,E4_Acc,2024-06-24 09:42:34.429640055,8.0,63.0,10.0
1904-01-01 00:18:02.818786055,E4_Acc,2024-06-24 09:42:34.460890055,8.0,63.0,11.0
1904-01-01 00:18:02.850036055,E4_Acc,2024-06-24 09:42:34.492140055,8.0,63.0,11.0
1904-01-01 00:18:02.881286055,E4_Acc,2024-06-24 09:42:34.523390055,8.0,63.0,11.0
1904-01-01 00:18:02.912546068,E4_Acc,2024-06-24 09:42:34.554650068,8.0,63.0,11.0
1904-01-01 00:18:02.943796068,E4_Acc,2024-06-24 09:42:34.585900068,8.0,63.0,11.0
1904-01-01 00:18:02.975046068,E4_Acc,2024-06-24 09:42:34.617150068,8.0,63.0,11.0
1904-01-01 00:18:03.006296068,E4_Acc,2024-06-24 09:42:34.648400068,8.0,63.0,10.0
1904-01-01 00:18:03.037546068,E4_Acc,2024-06-24 09:42:34.679650068,8.0,63.0,10.0
1904-01-01 00:18:03.068796068,E4_Acc,2024-06-24 09:42:34.710900068,8.0,63.0,10.0
1904-01-01 00:18:03.100046068,E4_Acc,2024-06-24 09:42:34.742150068,8.0,63.0,10.0
1904-01-01 00:18:03.131306082,E4_Acc,2024-06-24 09:42:34.773410082,8.0,63.0,10.0
1904-01-01 00:18:03.162556082,E4_Acc,2024-06-24 09:42:34.804660082,8.0,63.0,10.0
1904-01-01 00:18:03.193806082,E4_Acc,2024-06-24 09:42:34.835910082,8.0,63.0,10.0
1904-01-01 00:18:03.225056082,E4_Acc,2024-06-24 09:42:34.867160082,7.0,63.0,10.0
1904-01-01 00:18:03.256306082,E4_Acc,2024-06-24 09:42:34.898410082,7.0,63.0,10.0
1904-01-01 00:18:03.287556082,E4_Acc,2024-06-24 09:42:34.929660082,7.0,63.0,10.0
1904-01-01 00:18:03.318806082,E4_Acc,2024-06-24 09:42:34.960910082,7.0,63.0,11.0
1904-01-01 00:18:03.350066095,E4_Acc,2024-06-24 09:42:34.992170095,7.0,63.0,10.0
1904-01-01 00:18:03.381316095,E4_Acc,2024-06-24 09:42:35.023420095,8.0,63.0,10.0
1904-01-01 00:18:03.412566095,E4_Acc,2024-06-24 09:42:35.054670095,8.0,63.0,10.0
1904-01-01 00:18:03.443816095,E4_Acc,2024-06-24 09:42:35.085920095,8.0,63.0,10.0
1904-01-01 00:18:03.475066095,E4_Acc,2024-06-24 09:42:35.117170095,8.0,63.0,10.0
1904-01-01 00:18:03.506316095,E4_Acc,2024-06-24 09:42:35.148420095,8.0,63.0,10.0
1904-01-01 00:18:03.537566095,E4_Acc,2024-06-24 09:42:35.179670095,8.0,63.0,10.0
1904-01-01 00:18:03.568826109,E4_Acc,2024-06-24 09:42:35.210930109,8.0,63.0,10.0
1904-01-01 00:18:03.600076109,E4_Acc,2024-06-24 09:42:35.242180109,8.0,63.0,11.0
1904-01-01 00:18:03.631326109,E4_Acc,2024-06-24 09:42:35.273430109,8.0,63.0,11.0
1904-01-01 00:18:03.662576109,E4_Acc,2024-06-24 09:42:35.304680109,8.0,63.0,11.0
1904-01-01 00:18:03.693826109,E4_Acc,2024-06-24 09:42:35.335930109,8.0,63.0,11.0
1904-01-01 00:18:03.725076109,E4_Acc,2024-06-24 09:42:35.367180109,8.0,63.0,11.0
1904-01-01 00:18:03.756326109,E4_Acc,2024-06-24 09:42:35.398430109,8.0,63.0,11.0
1904-01-01 00:18:03.787585884,E4_Acc,2024-06-24 09:42:35.429689884,8.0,63.0,11.0
1904-01-01 00:18:03.818835884,E4_Acc,2024-06-24 09:42:35.460939884,8.0,63.0,10.0
1904-01-01 00:18:03.850085884,E4_Acc,2024-06-24 09:42:35.492189884,8.0,63.0,10.0
1904-01-01 00:18:03.881335883,E4_Acc,2024-06-24 09:42:35.523439883,8.0,63.0,10.0
1904-01-01 00:18:03.912585884,E4_Acc,2024-06-24 09:42:35.554689884,8.0,63.0,10.0
1904-01-01 00:18:03.943835884,E4_Acc,2024-06-24 09:42:35.585939884,8.0,63.0,10.0
1904-01-01 00:18:03.975085884,E4_Acc,2024-06-24 09:42:35.617189884,8.0,63.0,11.0
1904-01-01 00:18:04.006345898,E4_Acc,2024-06-24 09:42:35.648449898,8.0,63.0,10.0
1904-01-01 00:18:04.037595898,E4_Acc,2024-06-24 09:42:35.679699898,8.0,63.0,11.0
1904-01-01 00:18:04.068845898,E4_Acc,2024-06-24 09:42:35.710949898,8.0,63.0,10.0
1904-01-01 00:18:04.100095898,E4_Acc,2024-06-24 09:42:35.742199898,8.0,63.0,11.0
1904-01-01 00:18:04.131345898,E4_Acc,2024-06-24 09:42:35.773449898,8.0,63.0,10.0
1904-01-01 00:18:04.162595898,E4_Acc,2024-06-24 09:42:35.804699898,8.0,63.0,10.0
1904-01-01 00:18:04.193845898,E4_Acc,2024-06-24 09:42:35.835949898,8.0,63.0,10.0
1904-01-01 00:18:04.225105911,E4_Acc,2024-06-24 09:42:35.867209911,8.0,63.0,10.0
1904-01-01 00:18:04.256355911,E4_Acc,2024-06-24 09:42:35.898459911,8.0,63.0,10.0
1904-01-01 00:18:04.287605911,E4_Acc,2024-06-24 09:42:35.929709911,8.0,63.0,10.0
1904-01-01 00:18:04.318855911,E4_Acc,2024-06-24 09:42:35.960959911,8.0,63.0,10.0
1904-01-01 00:18:04.350105911,E4_Acc,2024-06-24 09:42:35.992209911,8.0,63.0,10.0
1904-01-01 00:18:04.381355911,E4_Acc,2024-06-24 09:42:36.023459911,8.0,63.0,10.0
1904-01-01 00:18:04.412605911,E4_Acc,2024-06-24 09:42:36.054709911,8.0,63.0,10.0
1904-01-01 00:18:04.443865925,E4_Acc,2024-06-24 09:42:36.085969925,8.0,63.0,10.0
1904-01-01 00:18:04.475115925,E4_Acc,2024-06-24 09:42:36.117219925,8.0,63.0,10.0
1904-01-01 00:18:04.506365925,E4_Acc,2024-06-24 09:42:36.148469925,8.0,63.0,10.0
1904-01-01 00:18:04.537615925,E4_Acc,2024-06-24 09:42:36.179719925,8.0,63.0,10.0
1904-01-01 00:18:04.568865925,E4_Acc,2024-06-24 09:42:36.210969925,8.0,63.0,10.0
1904-01-01 00:18:04.600115925,E4_Acc,2024-06-24 09:42:36.242219925,8.0,63.0,10.0
1904-01-01 00:18:04.631365925,E4_Acc,2024-06-24 09:42:36.273469925,8.0,63.0,10.0
1904-01-01 00:18:04.662625939,E4_Acc,2024-06-24 09:42:36.304729939,8.0,63.0,10.0
1904-01-01 00:18:04.693875939,E4_Acc,2024-06-24 09:42:36.335979939,9.0,63.0,10.0
1904-01-01 00:18:04.725125939,E4_Acc,2024-06-24 09:42:36.367229939,9.0,63.0,10.0
1904-01-01 00:18:04.756375939,E4_Acc,2024-06-24 09:42:36.398479939,8.0,63.0,10.0
1904-01-01 00:18:04.787625939,E4_Acc,2024-06-24 09:42:36.429729939,8.0,63.0,10.0
1904-01-01 00:18:04.818875939,E4_Acc,2024-06-24 09:42:36.460979939,8.0,63.0,10.0
1904-01-01 00:18:04.850125939,E4_Acc,2024-06-24 09:42:36.492229939,8.0,63.0,10.0
1904-01-01 00:18:04.881385952,E4_Acc,2024-06-24 09:42:36.523489952,8.0,63.0,10.0
1904-01-01 00:18:04.912635952,E4_Acc,2024-06-24 09:42:36.554739952,8.0,63.0,10.0
1904-01-01 00:18:04.943885952,E4_Acc,2024-06-24 09:42:36.585989952,8.0,63.0,10.0
1904-01-01 00:18:04.975135952,E4_Acc,2024-06-24 09:42:36.617239952,8.0,63.0,10.0
1904-01-01 00:18:05.006385952,E4_Acc,2024-06-24 09:42:36.648489952,8.0,63.0,10.0
1904-01-01 00:18:05.037635952,E4_Acc,2024-06-24 09:42:36.679739952,8.0,63.0,10.0
1904-01-01 00:18:05.068895966,E4_Acc,2024-06-24 09:42:36.710999966,8.0,63.0,10.0
1904-01-01 00:18:05.100145966,E4_Acc,2024-06-24 09:42:36.742249966,8.0,63.0,10.0
1904-01-01 00:18:05.131395966,E4_Acc,2024-06-24 09:42:36.773499966,8.0,63.0,10.0
1904-01-01 00:18:05.162645966,E4_Acc,2024-06-24 09:42:36.804749966,8.0,63.0,10.0
1904-01-01 00:18:05.193895966,E4_Acc,2024-06-24 09:42:36.835999966,8.0,63.0,10.0
1904-01-01 00:18:05.225145966,E4_Acc,2024-06-24 09:42:36.867249966,8.0,63.0,10.0
1904-01-01 00:18:05.256395966,E4_Acc,2024-06-24 09:42:36.898499966,8.0,63.0,10.0
1904-01-01 00:18:05.287655979,E4_Acc,2024-06-24 09:42:36.929759979,8.0,63.0,10.0
1904-01-01 00:18:05.318905979,E4_Acc,2024-06-24 09:42:36.961009979,8.0,63.0,10.0
1904-01-01 00:18:05.350155979,E4_Acc,2024-06-24 09:42:36.992259979,8.0,63.0,10.0
1904-01-01 00:18:05.381405979,E4_Acc,2024-06-24 09:42:37.023509979,8.0,63.0,10.0
1904-01-01 00:18:05.412655979,E4_Acc,2024-06-24 09:42:37.054759979,8.0,63.0,10.0
1904-01-01 00:18:05.443905979,E4_Acc,2024-06-24 09:42:37.086009979,8.0,63.0,10.0
1904-01-01 00:18:05.475155979,E4_Acc,2024-06-24 09:42:37.117259979,8.0,63.0,10.0
1904-01-01 00:18:05.506415993,E4_Acc,2024-06-24 09:42:37.148519993,8.0,63.0,10.0
1904-01-01 00:18:05.537665993,E4_Acc,2024-06-24 09:42:37.179769993,8.0,63.0,10.0
1904-01-01 00:18:05.568915993,E4_Acc,2024-06-24 09:42:37.211019993,8.0,63.0,10.0
1904-01-01 00:18:05.600165993,E4_Acc,2024-06-24 09:42:37.242269993,8.0,63.0,10.0
1904-01-01 00:18:05.631415993,E4_Acc,2024-06-24 09:42:37.273519993,8.0,63.0,10.0
1904-01-01 00:18:05.662665993,E4_Acc,2024-06-24 09:42:37.304769993,8.0,63.0,10.0
1904-01-01 00:18:05.693915993,E4_Acc,2024-06-24 09:42:37.336019993,8.0,63.0,10.0
1904-01-01 00:18:05.725176006,E4_Acc,2024-06-24 09:42:37.367280006,8.0,63.0,10.0
1904-01-01 00:18:05.756426006,E4_Acc,2024-06-24 09:42:37.398530006,8.0,63.0,10.0
1904-01-01 00:18:05.787676006,E4_Acc,2024-06-24 09:42:37.429780006,8.0,63.0,10.0
1904-01-01 00:18:05.818926006,E4_Acc,2024-06-24 09:42:37.461030006,8.0,63.0,10.0
1904-01-01 00:18:05.850176006,E4_Acc,2024-06-24 09:42:37.492280006,8.0,63.0,10.0
1904-01-01 00:18:05.881426006,E4_Acc,2024-06-24 09:42:37.523530006,8.0,63.0,10.0
1904-01-01 00:18:05.912676006,E4_Acc,2024-06-24 09:42:37.554780006,7.0,63.0,10.0
1904-01-01 00:18:05.943936020,E4_Acc,2024-06-24 09:42:37.586040020,7.0,63.0,10.0
1904-01-01 00:18:05.975186020,E4_Acc,2024-06-24 09:42:37.617290020,7.0,63.0,10.0
1904-01-01 00:18:06.006436020,E4_Acc,2024-06-24 09:42:37.648540020,7.0,63.0,10.0
1904-01-01 00:18:06.037686020,E4_Acc,2024-06-24 09:42:37.679790020,7.0,63.0,10.0
1904-01-01 00:18:06.068936020,E4_Acc,2024-06-24 09:42:37.711040020,7.0,63.0,10.0
1904-01-01 00:18:06.100186020,E4_Acc,2024-06-24 09:42:37.742290020,7.0,63.0,10.0
1904-01-01 00:18:06.131436020,E4_Acc,2024-06-24 09:42:37.773540020,7.0,63.0,10.0
1904-01-01 00:18:06.162696034,E4_Acc,2024-06-24 09:42:37.804800034,8.0,63.0,10.0
1904-01-01 00:18:06.193946034,E4_Acc,2024-06-24 09:42:37.836050034,8.0,63.0,10.0
1904-01-01 00:18:06.225196034,E4_Acc,2024-06-24 09:42:37.867300034,8.0,63.0,11.0
1904-01-01 00:18:06.256446034,E4_Acc,2024-06-24 09:42:37.898550034,8.0,63.0,11.0
1904-01-01 00:18:06.287696034,E4_Acc,2024-06-24 09:42:37.929800034,8.0,63.0,11.0
1904-01-01 00:18:06.318946034,E4_Acc,2024-06-24 09:42:37.961050034,8.0,63.0,11.0
1904-01-01 00:18:06.350196034,E4_Acc,2024-06-24 09:42:37.992300034,8.0,63.0,11.0
1904-01-01 00:18:06.381456047,E4_Acc,2024-06-24 09:42:38.023560047,8.0,63.0,11.0
1904-01-01 00:18:06.412706047,E4_Acc,2024-06-24 09:42:38.054810047,8.0,63.0,10.0
1904-01-01 00:18:06.443956047,E4_Acc,2024-06-24 09:42:38.086060047,8.0,63.0,11.0
1904-01-01 00:18:06.475206047,E4_Acc,2024-06-24 09:42:38.117310047,8.0,63.0,11.0
1904-01-01 00:18:06.506456047,E4_Acc,2024-06-24 09:42:38.148560047,8.0,63.0,11.0
1904-01-01 00:18:06.537706047,E4_Acc,2024-06-24 09:42:38.179810047,8.0,63.0,11.0
1904-01-01 00:18:06.568956047,E4_Acc,2024-06-24 09:42:38.211060047,8.0,63.0,11.0
1904-01-01 00:18:06.600216061,E4_Acc,2024-06-24 09:42:38.242320061,8.0,63.0,11.0
1904-01-01 00:18:06.631466061,E4_Acc,2024-06-24 09:42:38.273570061,8.0,63.0,11.0
1904-01-01 00:18:06.662716061,E4_Acc,2024-06-24 09:42:38.304820061,8.0,63.0,11.0
1904-01-01 00:18:06.693966061,E4_Acc,2024-06-24 09:42:38.336070061,8.0,63.0,11.0
1904-01-01 00:18:06.725216061,E4_Acc,2024-06-24 09:42:38.367320061,8.0,63.0,11.0
1904-01-01 00:18:06.756466061,E4_Acc,2024-06-24 09:42:38.398570061,8.0,63.0,11.0
1904-01-01 00:18:06.787716061,E4_Acc,2024-06-24 09:42:38.429820061,8.0,63.0,11.0
1904-01-01 00:18:06.818976074,E4_Acc,2024-06-24 09:42:38.461080074,8.0,63.0,11.0
1904-01-01 00:18:06.850226074,E4_Acc,2024-06-24 09:42:38.492330074,8.0,63.0,11.0
1904-01-01 00:18:06.881476073,E4_Acc,2024-06-24 09:42:38.523580073,8.0,63.0,11.0
1904-01-01 00:18:06.912726074,E4_Acc,2024-06-24 09:42:38.554830074,8.0,63.0,11.0
1904-01-01 00:18:06.943976074,E4_Acc,2024-06-24 09:42:38.586080074,8.0,63.0,11.0
1904-01-01 00:18:06.975226074,E4_Acc,2024-06-24 09:42:38.617330074,7.0,63.0,11.0
1904-01-01 00:18:07.006476074,E4_Acc,2024-06-24 09:42:38.648580074,7.0,63.0,11.0
1904-01-01 00:18:07.037736088,E4_Acc,2024-06-24 09:42:38.679840088,8.0,63.0,11.0
1904-01-01 00:18:07.068986088,E4_Acc,2024-06-24 09:42:38.711090088,8.0,63.0,11.0
1904-01-01 00:18:07.100236088,E4_Acc,2024-06-24 09:42:38.742340088,8.0,63.0,11.0
1904-01-01 00:18:07.131486088,E4_Acc,2024-06-24 09:42:38.773590088,8.0,63.0,11.0
1904-01-01 00:18:07.162736088,E4_Acc,2024-06-24 09:42:38.804840088,8.0,63.0,11.0
1904-01-01 00:18:07.193986088,E4_Acc,2024-06-24 09:42:38.836090088,8.0,63.0,11.0
1904-01-01 00:18:07.225236088,E4_Acc,2024-06-24 09:42:38.867340088,8.0,63.0,11.0
1904-01-01 00:18:07.256496101,E4_Acc,2024-06-24 09:42:38.898600101,8.0,63.0,11.0
1904-01-01 00:18:07.287746101,E4_Acc,2024-06-24 09:42:38.929850101,8.0,63.0,11.0
1904-01-01 00:18:07.318996101,E4_Acc,2024-06-24 09:42:38.961100101,8.0,63.0,11.0
1904-01-01 00:18:07.350246101,E4_Acc,2024-06-24 09:42:38.992350101,8.0,63.0,11.0
1904-01-01 00:18:07.381496101,E4_Acc,2024-06-24 09:42:39.023600101,8.0,63.0,11.0
1904-01-01 00:18:07.412746101,E4_Acc,2024-06-24 09:42:39.054850101,8.0,63.0,11.0
1904-01-01 00:18:07.444006115,E4_Acc,2024-06-24 09:42:39.086110115,8.0,63.0,11.0
1904-01-01 00:18:07.475256115,E4_Acc,2024-06-24 09:42:39.117360115,8.0,63.0,11.0
1904-01-01 00:18:07.506506115,E4_Acc,2024-06-24 09:42:39.148610115,8.0,63.0,11.0
1904-01-01 00:18:07.537756115,E4_Acc,2024-06-24 09:42:39.179860115,8.0,63.0,11.0
1904-01-01 00:18:07.569006115,E4_Acc,2024-06-24 09:42:39.211110115,8.0,63.0,11.0
1904-01-01 00:18:07.600256115,E4_Acc,2024-06-24 09:42:39.242360115,8.0,63.0,11.0
1904-01-01 00:18:07.631506115,E4_Acc,2024-06-24 09:42:39.273610115,8.0,63.0,11.0
1904-01-01 00:18:07.662765890,E4_Acc,2024-06-24 09:42:39.304869890,8.0,63.0,11.0
1904-01-01 00:18:07.694015890,E4_Acc,2024-06-24 09:42:39.336119890,8.0,63.0,11.0
1904-01-01 00:18:07.725265890,E4_Acc,2024-06-24 09:42:39.367369890,8.0,63.0,11.0
1904-01-01 00:18:07.756515890,E4_Acc,2024-06-24 09:42:39.398619890,8.0,63.0,11.0
1904-01-01 00:18:07.787765890,E4_Acc,2024-06-24 09:42:39.429869890,8.0,63.0,11.0
1904-01-01 00:18:07.819015890,E4_Acc,2024-06-24 09:42:39.461119890,8.0,63.0,11.0
1904-01-01 00:18:07.850265890,E4_Acc,2024-06-24 09:42:39.492369890,8.0,63.0,10.0
1904-01-01 00:18:07.881525904,E4_Acc,2024-06-24 09:42:39.523629904,8.0,63.0,10.0
1904-01-01 00:18:07.912775904,E4_Acc,2024-06-24 09:42:39.554879904,8.0,63.0,10.0
1904-01-01 00:18:07.944025904,E4_Acc,2024-06-24 09:42:39.586129904,8.0,63.0,10.0
1904-01-01 00:18:07.975275904,E4_Acc,2024-06-24 09:42:39.617379904,8.0,63.0,11.0
1904-01-01 00:18:08.006525904,E4_Acc,2024-06-24 09:42:39.648629904,8.0,63.0,10.0
1904-01-01 00:18:08.037775904,E4_Acc,2024-06-24 09:42:39.679879904,8.0,63.0,10.0
1904-01-01 00:18:08.069025904,E4_Acc,2024-06-24 09:42:39.711129904,8.0,63.0,11.0
1904-01-01 00:18:08.100285917,E4_Acc,2024-06-24 09:42:39.742389917,8.0,63.0,11.0
1904-01-01 00:18:08.131535917,E4_Acc,2024-06-24 09:42:39.773639917,8.0,63.0,11.0
1904-01-01 00:18:08.162785917,E4_Acc,2024-06-24 09:42:39.804889917,8.0,63.0,11.0
1904-01-01 00:18:08.194035917,E4_Acc,2024-06-24 09:42:39.836139917,8.0,63.0,10.0
1904-01-01 00:18:08.225285917,E4_Acc,2024-06-24 09:42:39.867389917,8.0,63.0,10.0
1904-01-01 00:18:08.256535917,E4_Acc,2024-06-24 09:42:39.898639917,8.0,63.0,10.0
1904-01-01 00:18:08.287785917,E4_Acc,2024-06-24 09:42:39.929889917,8.0,63.0,10.0
1904-01-01 00:18:08.319045931,E4_Acc,2024-06-24 09:42:39.961149931,8.0,63.0,10.0
1904-01-01 00:18:08.350295931,E4_Acc,2024-06-24 09:42:39.992399931,8.0,63.0,10.0
1904-01-01 00:18:08.381545931,E4_Acc,2024-06-24 09:42:40.023649931,8.0,63.0,10.0
1904-01-01 00:18:08.412795931,E4_Acc,2024-06-24 09:42:40.054899931,8.0,63.0,10.0
1904-01-01 00:18:08.444045931,E4_Acc,2024-06-24 09:42:40.086149931,8.0,63.0,10.0
1904-01-01 00:18:08.475295931,E4_Acc,2024-06-24 09:42:40.117399931,8.0,63.0,10.0
1904-01-01 00:18:08.506545931,E4_Acc,2024-06-24 09:42:40.148649931,8.0,63.0,10.0
1904-01-01 00:18:08.537805945,E4_Acc,2024-06-24 09:42:40.179909945,8.0,63.0,10.0
1904-01-01 00:18:08.569055945,E4_Acc,2024-06-24 09:42:40.211159945,8.0,63.0,10.0
1904-01-01 00:18:08.600305945,E4_Acc,2024-06-24 09:42:40.242409945,8.0,63.0,10.0
1904-01-01 00:18:08.631555945,E4_Acc,2024-06-24 09:42:40.273659945,8.0,63.0,10.0
1904-01-01 00:18:08.662805945,E4_Acc,2024-06-24 09:42:40.304909945,8.0,63.0,10.0
1904-01-01 00:18:08.694055945,E4_Acc,2024-06-24 09:42:40.336159945,8.0,63.0,10.0
1904-01-01 00:18:08.725305945,E4_Acc,2024-06-24 09:42:40.367409945,8.0,63.0,10.0
1904-01-01 00:18:08.756565958,E4_Acc,2024-06-24 09:42:40.398669958,8.0,63.0,10.0
1904-01-01 00:18:08.787815958,E4_Acc,2024-06-24 09:42:40.429919958,8.0,63.0,10.0
1904-01-01 00:18:08.819065958,E4_Acc,2024-06-24 09:42:40.461169958,8.0,63.0,10.0
1904-01-01 00:18:08.850315958,E4_Acc,2024-06-24 09:42:40.492419958,8.0,63.0,10.0
1904-01-01 00:18:08.881565958,E4_Acc,2024-06-24 09:42:40.523669958,8.0,63.0,9.0
1904-01-01 00:18:08.912815958,E4_Acc,2024-06-24 09:42:40.554919958,8.0,63.0,9.0
1904-01-01 00:18:08.944065958,E4_Acc,2024-06-24 09:42:40.586169958,8.0,63.0,10.0
1904-01-01 00:18:08.975325972,E4_Acc,2024-06-24 09:42:40.617429972,8.0,63.0,9.0
1904-01-01 00:18:09.006575972,E4_Acc,2024-06-24 09:42:40.648679972,8.0,63.0,10.0
1904-01-01 00:18:09.037825972,E4_Acc,2024-06-24 09:42:40.679929972,8.0,63.0,10.0
1904-01-01 00:18:09.069075972,E4_Acc,2024-06-24 09:42:40.711179972,8.0,63.0,10.0
1904-01-01 00:18:09.100325972,E4_Acc,2024-06-24 09:42:40.742429972,8.0,63.0,10.0
1904-01-01 00:18:09.131575972,E4_Acc,2024-06-24 09:42:40.773679972,8.0,63.0,10.0
1904-01-01 00:18:09.162825972,E4_Acc,2024-06-24 09:42:40.804929972,8.0,63.0,10.0
1904-01-01 00:18:09.194085985,E4_Acc,2024-06-24 09:42:40.836189985,8.0,63.0,10.0
1904-01-01 00:18:09.225335985,E4_Acc,2024-06-24 09:42:40.867439985,8.0,63.0,10.0
1904-01-01 00:18:09.256585985,E4_Acc,2024-06-24 09:42:40.898689985,8.0,63.0,10.0
1904-01-01 00:18:09.287835985,E4_Acc,2024-06-24 09:42:40.929939985,8.0,63.0,10.0
1904-01-01 00:18:09.319085985,E4_Acc,2024-06-24 09:42:40.961189985,8.0,63.0,10.0
1904-01-01 00:18:09.350335985,E4_Acc,2024-06-24 09:42:40.992439985,8.0,63.0,10.0
1904-01-01 00:18:09.381585985,E4_Acc,2024-06-24 09:42:41.023689985,8.0,63.0,10.0
1904-01-01 00:18:09.412845999,E4_Acc,2024-06-24 09:42:41.054949999,8.0,63.0,10.0
1904-01-01 00:18:09.444095999,E4_Acc,2024-06-24 09:42:41.086199999,8.0,63.0,10.0
1904-01-01 00:18:09.475345999,E4_Acc,2024-06-24 09:42:41.117449999,8.0,63.0,10.0
1904-01-01 00:18:09.506595999,E4_Acc,2024-06-24 09:42:41.148699999,8.0,63.0,10.0
1904-01-01 00:18:09.537845999,E4_Acc,2024-06-24 09:42:41.179949999,8.0,63.0,10.0
1904-01-01 00:18:09.569095999,E4_Acc,2024-06-24 09:42:41.211199999,8.0,63.0,10.0
1904-01-01 00:18:09.600356012,E4_Acc,2024-06-24 09:42:41.242460012,8.0,64.0,10.0
1904-01-01 00:18:09.631606012,E4_Acc,2024-06-24 09:42:41.273710012,8.0,64.0,10.0
1904-01-01 00:18:09.662856012,E4_Acc,2024-06-24 09:42:41.304960012,8.0,63.0,10.0
1904-01-01 00:18:09.694106012,E4_Acc,2024-06-24 09:42:41.336210012,8.0,63.0,10.0
1904-01-01 00:18:09.725356012,E4_Acc,2024-06-24 09:42:41.367460012,8.0,63.0,10.0
1904-01-01 00:18:09.756606012,E4_Acc,2024-06-24 09:42:41.398710012,8.0,63.0,10.0
1904-01-01 00:18:09.787856012,E4_Acc,2024-06-24 09:42:41.429960012,8.0,63.0,10.0
1904-01-01 00:18:09.819116026,E4_Acc,2024-06-24 09:42:41.461220026,8.0,63.0,9.0
1904-01-01 00:18:09.850366026,E4_Acc,2024-06-24 09:42:41.492470026,8.0,63.0,9.0
1904-01-01 00:18:09.881616026,E4_Acc,2024-06-24 09:42:41.523720026,8.0,63.0,9.0
1904-01-01 00:18:09.912866026,E4_Acc,2024-06-24 09:42:41.554970026,8.0,63.0,9.0
1904-01-01 00:18:09.944116026,E4_Acc,2024-06-24 09:42:41.586220026,8.0,63.0,9.0
1904-01-01 00:18:09.975366026,E4_Acc,2024-06-24 09:42:41.617470026,8.0,63.0,10.0
1904-01-01 00:18:10.006616026,E4_Acc,2024-06-24 09:42:41.648720026,7.0,63.0,10.0
1904-01-01 00:18:10.037876040,E4_Acc,2024-06-24 09:42:41.679980040,7.0,63.0,10.0
1904-01-01 00:18:10.069126040,E4_Acc,2024-06-24 09:42:41.711230040,7.0,63.0,10.0
1904-01-01 00:18:10.100376040,E4_Acc,2024-06-24 09:42:41.742480040,7.0,63.0,10.0
1904-01-01 00:18:10.131626040,E4_Acc,2024-06-24 09:42:41.773730040,8.0,63.0,10.0
1904-01-01 00:18:10.162876040,E4_Acc,2024-06-24 09:42:41.804980040,7.0,63.0,9.0
1904-01-01 00:18:10.194126040,E4_Acc,2024-06-24 09:42:41.836230040,8.0,63.0,9.0
1904-01-01 00:18:10.225376040,E4_Acc,2024-06-24 09:42:41.867480040,8.0,63.0,9.0
1904-01-01 00:18:10.256636053,E4_Acc,2024-06-24 09:42:41.898740053,8.0,63.0,9.0
1904-01-01 00:18:10.287886053,E4_Acc,2024-06-24 09:42:41.929990053,8.0,63.0,9.0
1904-01-01 00:18:10.319136053,E4_Acc,2024-06-24 09:42:41.961240053,8.0,63.0,10.0
1904-01-01 00:18:10.350386053,E4_Acc,2024-06-24 09:42:41.992490053,8.0,63.0,10.0
1904-01-01 00:18:10.381636053,E4_Acc,2024-06-24 09:42:42.023740053,8.0,63.0,10.0
1904-01-01 00:18:10.412886053,E4_Acc,2024-06-24 09:42:42.054990053,8.0,63.0,10.0
1904-01-01 00:18:10.444136053,E4_Acc,2024-06-24 09:42:42.086240053,8.0,63.0,10.0
1904-01-01 00:18:10.475396067,E4_Acc,2024-06-24 09:42:42.117500067,8.0,63.0,10.0
1904-01-01 00:18:10.506646067,E4_Acc,2024-06-24 09:42:42.148750067,8.0,63.0,10.0
1904-01-01 00:18:10.537896067,E4_Acc,2024-06-24 09:42:42.180000067,8.0,63.0,10.0
1904-01-01 00:18:10.569146067,E4_Acc,2024-06-24 09:42:42.211250067,8.0,63.0,10.0
1904-01-01 00:18:10.600396067,E4_Acc,2024-06-24 09:42:42.242500067,8.0,63.0,9.0
1904-01-01 00:18:10.631646067,E4_Acc,2024-06-24 09:42:42.273750067,8.0,63.0,9.0
1904-01-01 00:18:10.662896067,E4_Acc,2024-06-24 09:42:42.305000067,8.0,63.0,9.0
1904-01-01 00:18:10.694156080,E4_Acc,2024-06-24 09:42:42.336260080,8.0,63.0,10.0
1904-01-01 00:18:10.725406080,E4_Acc,2024-06-24 09:42:42.367510080,8.0,63.0,10.0
1904-01-01 00:18:10.756656080,E4_Acc,2024-06-24 09:42:42.398760080,8.0,63.0,10.0
1904-01-01 00:18:10.787906080,E4_Acc,2024-06-24 09:42:42.430010080,8.0,63.0,9.0
1904-01-01 00:18:10.819156080,E4_Acc,2024-06-24 09:42:42.461260080,8.0,64.0,9.0
1904-01-01 00:18:10.850406080,E4_Acc,2024-06-24 09:42:42.492510080,8.0,63.0,9.0
1904-01-01 00:18:10.881656079,E4_Acc,2024-06-24 09:42:42.523760079,8.0,63.0,9.0
1904-01-01 00:18:10.912916094,E4_Acc,2024-06-24 09:42:42.555020094,8.0,63.0,9.0
1904-01-01 00:18:10.944166094,E4_Acc,2024-06-24 09:42:42.586270094,8.0,63.0,9.0
1904-01-01 00:18:10.975416094,E4_Acc,2024-06-24 09:42:42.617520094,8.0,63.0,9.0
1904-01-01 00:18:11.006666094,E4_Acc,2024-06-24 09:42:42.648770094,8.0,63.0,9.0
1904-01-01 00:18:11.037916094,E4_Acc,2024-06-24 09:42:42.680020094,8.0,63.0,9.0
1904-01-01 00:18:11.069166094,E4_Acc,2024-06-24 09:42:42.711270094,8.0,63.0,9.0
1904-01-01 00:18:11.100416094,E4_Acc,2024-06-24 09:42:42.742520094,8.0,63.0,9.0
1904-01-01 00:18:11.131676107,E4_Acc,2024-06-24 09:42:42.773780107,8.0,63.0,9.0
1904-01-01 00:18:11.162926107,E4_Acc,2024-06-24 09:42:42.805030107,8.0,64.0,9.0
1904-01-01 00:18:11.194176107,E4_Acc,2024-06-24 09:42:42.836280107,8.0,63.0,9.0
1904-01-01 00:18:11.225426107,E4_Acc,2024-06-24 09:42:42.867530107,8.0,63.0,9.0
1904-01-01 00:18:11.256676107,E4_Acc,2024-06-24 09:42:42.898780107,8.0,63.0,9.0
1904-01-01 00:18:11.287926107,E4_Acc,2024-06-24 09:42:42.930030107,8.0,63.0,9.0
1904-01-01 00:18:11.319176107,E4_Acc,2024-06-24 09:42:42.961280107,8.0,63.0,9.0
1904-01-01 00:18:11.350435883,E4_Acc,2024-06-24 09:42:42.992539883,8.0,63.0,9.0
1904-01-01 00:18:11.381685883,E4_Acc,2024-06-24 09:42:43.023789883,8.0,63.0,9.0
1904-01-01 00:18:11.412935883,E4_Acc,2024-06-24 09:42:43.055039883,8.0,63.0,9.0
1904-01-01 00:18:11.444185883,E4_Acc,2024-06-24 09:42:43.086289883,8.0,63.0,9.0
1904-01-01 00:18:11.475435883,E4_Acc,2024-06-24 09:42:43.117539883,8.0,63.0,9.0
1904-01-01 00:18:11.506685883,E4_Acc,2024-06-24 09:42:43.148789883,8.0,63.0,10.0
1904-01-01 00:18:11.537935883,E4_Acc,2024-06-24 09:42:43.180039883,8.0,63.0,10.0
1904-01-01 00:18:11.569195896,E4_Acc,2024-06-24 09:42:43.211299896,8.0,63.0,10.0
1904-01-01 00:18:11.600445896,E4_Acc,2024-06-24 09:42:43.242549896,8.0,63.0,10.0
1904-01-01 00:18:11.631695896,E4_Acc,2024-06-24 09:42:43.273799896,8.0,63.0,10.0
1904-01-01 00:18:11.662945896,E4_Acc,2024-06-24 09:42:43.305049896,8.0,63.0,10.0
1904-01-01 00:18:11.694195896,E4_Acc,2024-06-24 09:42:43.336299896,8.0,63.0,10.0
1904-01-01 00:18:11.725445896,E4_Acc,2024-06-24 09:42:43.367549896,8.0,63.0,10.0
1904-01-01 00:18:11.756695896,E4_Acc,2024-06-24 09:42:43.398799896,8.0,63.0,10.0
1904-01-01 00:18:11.787955910,E4_Acc,2024-06-24 09:42:43.430059910,8.0,63.0,10.0
1904-01-01 00:18:11.819205910,E4_Acc,2024-06-24 09:42:43.461309910,8.0,63.0,10.0
1904-01-01 00:18:11.850455910,E4_Acc,2024-06-24 09:42:43.492559910,8.0,63.0,10.0
1904-01-01 00:18:11.881705910,E4_Acc,2024-06-24 09:42:43.523809910,8.0,63.0,10.0
1904-01-01 00:18:11.912955910,E4_Acc,2024-06-24 09:42:43.555059910,8.0,63.0,10.0
1904-01-01 00:18:11.944205910,E4_Acc,2024-06-24 09:42:43.586309910,8.0,63.0,10.0
1904-01-01 00:18:11.975455910,E4_Acc,2024-06-24 09:42:43.617559910,8.0,63.0,10.0
1904-01-01 00:18:12.006715923,E4_Acc,2024-06-24 09:42:43.648819923,8.0,63.0,10.0
1904-01-01 00:18:12.037965923,E4_Acc,2024-06-24 09:42:43.680069923,8.0,63.0,10.0
1904-01-01 00:18:12.069215923,E4_Acc,2024-06-24 09:42:43.711319923,8.0,63.0,10.0
1904-01-01 00:18:12.100465923,E4_Acc,2024-06-24 09:42:43.742569923,8.0,63.0,10.0
1904-01-01 00:18:12.131715923,E4_Acc,2024-06-24 09:42:43.773819923,8.0,63.0,10.0
1904-01-01 00:18:12.162965923,E4_Acc,2024-06-24 09:42:43.805069923,8.0,63.0,10.0
1904-01-01 00:18:12.194215923,E4_Acc,2024-06-24 09:42:43.836319923,8.0,63.0,10.0
1904-01-01 00:18:12.225475937,E4_Acc,2024-06-24 09:42:43.867579937,8.0,63.0,10.0
1904-01-01 00:18:12.256725937,E4_Acc,2024-06-24 09:42:43.898829937,8.0,63.0,10.0
1904-01-01 00:18:12.287975937,E4_Acc,2024-06-24 09:42:43.930079937,8.0,63.0,10.0
1904-01-01 00:18:12.319225937,E4_Acc,2024-06-24 09:42:43.961329937,8.0,63.0,10.0
1904-01-01 00:18:12.350475937,E4_Acc,2024-06-24 09:42:43.992579937,8.0,63.0,10.0
1904-01-01 00:18:12.381725937,E4_Acc,2024-06-24 09:42:44.023829937,8.0,63.0,10.0
1904-01-01 00:18:12.412985951,E4_Acc,2024-06-24 09:42:44.055089951,8.0,63.0,10.0
1904-01-01 00:18:12.444235951,E4_Acc,2024-06-24 09:42:44.086339951,8.0,63.0,10.0
1904-01-01 00:18:12.475485951,E4_Acc,2024-06-24 09:42:44.117589951,8.0,63.0,10.0
1904-01-01 00:18:12.506735951,E4_Acc,2024-06-24 09:42:44.148839951,8.0,63.0,10.0
1904-01-01 00:18:12.537985951,E4_Acc,2024-06-24 09:42:44.180089951,8.0,64.0,10.0
1904-01-01 00:18:12.569235951,E4_Acc,2024-06-24 09:42:44.211339951,8.0,63.0,10.0
1904-01-01 00:18:12.600485951,E4_Acc,2024-06-24 09:42:44.242589951,8.0,63.0,10.0
1904-01-01 00:18:12.631745964,E4_Acc,2024-06-24 09:42:44.273849964,8.0,63.0,10.0
1904-01-01 00:18:12.662995964,E4_Acc,2024-06-24 09:42:44.305099964,9.0,63.0,10.0
1904-01-01 00:18:12.694245964,E4_Acc,2024-06-24 09:42:44.336349964,8.0,63.0,10.0
1904-01-01 00:18:12.725495964,E4_Acc,2024-06-24 09:42:44.367599964,8.0,63.0,10.0
1904-01-01 00:18:12.756745964,E4_Acc,2024-06-24 09:42:44.398849964,8.0,63.0,10.0
1904-01-01 00:18:12.787995964,E4_Acc,2024-06-24 09:42:44.430099964,8.0,63.0,10.0
1904-01-01 00:18:12.819245964,E4_Acc,2024-06-24 09:42:44.461349964,8.0,63.0,10.0
1904-01-01 00:18:12.850505978,E4_Acc,2024-06-24 09:42:44.492609978,8.0,63.0,10.0
1904-01-01 00:18:12.881755977,E4_Acc,2024-06-24 09:42:44.523859977,8.0,63.0,10.0
1904-01-01 00:18:12.913005978,E4_Acc,2024-06-24 09:42:44.555109978,8.0,63.0,10.0
1904-01-01 00:18:12.944255978,E4_Acc,2024-06-24 09:42:44.586359978,8.0,63.0,10.0
1904-01-01 00:18:12.975505978,E4_Acc,2024-06-24 09:42:44.617609978,8.0,63.0,11.0
1904-01-01 00:18:13.006755978,E4_Acc,2024-06-24 09:42:44.648859978,8.0,63.0,10.0
1904-01-01 00:18:13.038005978,E4_Acc,2024-06-24 09:42:44.680109978,8.0,63.0,10.0
1904-01-01 00:18:13.069265991,E4_Acc,2024-06-24 09:42:44.711369991,8.0,63.0,10.0
1904-01-01 00:18:13.100515991,E4_Acc,2024-06-24 09:42:44.742619991,8.0,63.0,10.0
1904-01-01 00:18:13.131765991,E4_Acc,2024-06-24 09:42:44.773869991,8.0,63.0,10.0
1904-01-01 00:18:13.163015991,E4_Acc,2024-06-24 09:42:44.805119991,8.0,63.0,10.0
1904-01-01 00:18:13.194265991,E4_Acc,2024-06-24 09:42:44.836369991,8.0,63.0,10.0
1904-01-01 00:18:13.225515991,E4_Acc,2024-06-24 09:42:44.867619991,8.0,63.0,10.0
1904-01-01 00:18:13.256765991,E4_Acc,2024-06-24 09:42:44.898869991,8.0,63.0,11.0
1904-01-01 00:18:13.288026005,E4_Acc,2024-06-24 09:42:44.930130005,8.0,63.0,11.0
1904-01-01 00:18:13.319276005,E4_Acc,2024-06-24 09:42:44.961380005,9.0,63.0,11.0
1904-01-01 00:18:13.350526005,E4_Acc,2024-06-24 09:42:44.992630005,8.0,63.0,11.0
1904-01-01 00:18:13.381776005,E4_Acc,2024-06-24 09:42:45.023880005,8.0,63.0,11.0
1904-01-01 00:18:13.413026005,E4_Acc,2024-06-24 09:42:45.055130005,8.0,63.0,11.0
1904-01-01 00:18:13.444276005,E4_Acc,2024-06-24 09:42:45.086380005,8.0,63.0,11.0
1904-01-01 00:18:13.475526005,E4_Acc,2024-06-24 09:42:45.117630005,8.0,63.0,11.0
1904-01-01 00:18:13.506786018,E4_Acc,2024-06-24 09:42:45.148890018,8.0,63.0,11.0
1904-01-01 00:18:13.538036018,E4_Acc,2024-06-24 09:42:45.180140018,8.0,63.0,11.0
1904-01-01 00:18:13.569286018,E4_Acc,2024-06-24 09:42:45.211390018,8.0,63.0,11.0
1904-01-01 00:18:13.600536018,E4_Acc,2024-06-24 09:42:45.242640018,8.0,63.0,10.0
1904-01-01 00:18:13.631786018,E4_Acc,2024-06-24 09:42:45.273890018,8.0,63.0,10.0
1904-01-01 00:18:13.663036018,E4_Acc,2024-06-24 09:42:45.305140018,8.0,63.0,10.0
1904-01-01 00:18:13.694286018,E4_Acc,2024-06-24 09:42:45.336390018,8.0,63.0,11.0
1904-01-01 00:18:13.725546032,E4_Acc,2024-06-24 09:42:45.367650032,8.0,63.0,11.0
1904-01-01 00:18:13.756796032,E4_Acc,2024-06-24 09:42:45.398900032,8.0,63.0,11.0
1904-01-01 00:18:13.788046032,E4_Acc,2024-06-24 09:42:45.430150032,8.0,63.0,11.0
1904-01-01 00:18:13.819296032,E4_Acc,2024-06-24 09:42:45.461400032,8.0,63.0,11.0
1904-01-01 00:18:13.850546032,E4_Acc,2024-06-24 09:42:45.492650032,8.0,63.0,11.0
1904-01-01 00:18:13.881796032,E4_Acc,2024-06-24 09:42:45.523900032,8.0,63.0,11.0
1904-01-01 00:18:13.913046032,E4_Acc,2024-06-24 09:42:45.555150032,8.0,63.0,10.0
1904-01-01 00:18:13.944306046,E4_Acc,2024-06-24 09:42:45.586410046,9.0,63.0,10.0
1904-01-01 00:18:13.975556046,E4_Acc,2024-06-24 09:42:45.617660046,9.0,63.0,10.0
1904-01-01 00:18:14.006806046,E4_Acc,2024-06-24 09:42:45.648910046,8.0,63.0,10.0
1904-01-01 00:18:14.038056046,E4_Acc,2024-06-24 09:42:45.680160046,8.0,63.0,10.0
1904-01-01 00:18:14.069306046,E4_Acc,2024-06-24 09:42:45.711410046,8.0,63.0,10.0
1904-01-01 00:18:14.100556046,E4_Acc,2024-06-24 09:42:45.742660046,8.0,63.0,10.0
1904-01-01 00:18:14.131806046,E4_Acc,2024-06-24 09:42:45.773910046,8.0,63.0,10.0
1904-01-01 00:18:14.163066059,E4_Acc,2024-06-24 09:42:45.805170059,8.0,63.0,10.0
1904-01-01 00:18:14.194316059,E4_Acc,2024-06-24 09:42:45.836420059,8.0,63.0,10.0
1904-01-01 00:18:14.225566059,E4_Acc,2024-06-24 09:42:45.867670059,8.0,63.0,11.0
1904-01-01 00:18:14.256816059,E4_Acc,2024-06-24 09:42:45.898920059,8.0,63.0,11.0
1904-01-01 00:18:14.288066059,E4_Acc,2024-06-24 09:42:45.930170059,8.0,63.0,10.0
1904-01-01 00:18:14.319316059,E4_Acc,2024-06-24 09:42:45.961420059,9.0,63.0,11.0
1904-01-01 00:18:14.350566059,E4_Acc,2024-06-24 09:42:45.992670059,9.0,63.0,10.0
1904-01-01 00:18:14.381826073,E4_Acc,2024-06-24 09:42:46.023930073,9.0,63.0,10.0
1904-01-01 00:18:14.413076073,E4_Acc,2024-06-24 09:42:46.055180073,9.0,63.0,10.0
1904-01-01 00:18:14.444326073,E4_Acc,2024-06-24 09:42:46.086430073,9.0,63.0,10.0
1904-01-01 00:18:14.475576073,E4_Acc,2024-06-24 09:42:46.117680073,8.0,63.0,10.0
1904-01-01 00:18:14.506826073,E4_Acc,2024-06-24 09:42:46.148930073,8.0,63.0,10.0
1904-01-01 00:18:14.538076073,E4_Acc,2024-06-24 09:42:46.180180073,8.0,63.0,10.0
1904-01-01 00:18:14.569336086,E4_Acc,2024-06-24 09:42:46.211440086,8.0,63.0,11.0
1904-01-01 00:18:14.600586086,E4_Acc,2024-06-24 09:42:46.242690086,8.0,63.0,11.0
1904-01-01 00:18:14.631836086,E4_Acc,2024-06-24 09:42:46.273940086,8.0,63.0,11.0
1904-01-01 00:18:14.663086086,E4_Acc,2024-06-24 09:42:46.305190086,8.0,63.0,11.0
1904-01-01 00:18:14.694336086,E4_Acc,2024-06-24 09:42:46.336440086,8.0,63.0,11.0
1904-01-01 00:18:14.725586086,E4_Acc,2024-06-24 09:42:46.367690086,9.0,63.0,10.0
1904-01-01 00:18:14.756836086,E4_Acc,2024-06-24 09:42:46.398940086,9.0,63.0,10.0
1904-01-01 00:18:14.788096100,E4_Acc,2024-06-24 09:42:46.430200100,9.0,63.0,11.0
1904-01-01 00:18:14.819346100,E4_Acc,2024-06-24 09:42:46.461450100,9.0,63.0,10.0
1904-01-01 00:18:14.850596100,E4_Acc,2024-06-24 09:42:46.492700100,9.0,63.0,11.0
1904-01-01 00:18:14.881846100,E4_Acc,2024-06-24 09:42:46.523950100,9.0,63.0,11.0
1904-01-01 00:18:14.913096100,E4_Acc,2024-06-24 09:42:46.555200100,8.0,63.0,10.0
1904-01-01 00:18:14.944346100,E4_Acc,2024-06-24 09:42:46.586450100,8.0,63.0,11.0
1904-01-01 00:18:14.975596100,E4_Acc,2024-06-24 09:42:46.617700100,8.0,63.0,11.0
1904-01-01 00:18:15.006856114,E4_Acc,2024-06-24 09:42:46.648960114,8.0,63.0,11.0
1904-01-01 00:18:15.038106114,E4_Acc,2024-06-24 09:42:46.680210114,8.0,63.0,11.0
1904-01-01 00:18:15.069356114,E4_Acc,2024-06-24 09:42:46.711460114,8.0,63.0,10.0
1904-01-01 00:18:15.100606114,E4_Acc,2024-06-24 09:42:46.742710114,8.0,63.0,10.0
1904-01-01 00:18:15.131856114,E4_Acc,2024-06-24 09:42:46.773960114,8.0,63.0,10.0
1904-01-01 00:18:15.163106114,E4_Acc,2024-06-24 09:42:46.805210114,8.0,63.0,10.0
1904-01-01 00:18:15.194356114,E4_Acc,2024-06-24 09:42:46.836460114,8.0,63.0,10.0
1904-01-01 00:18:15.225615889,E4_Acc,2024-06-24 09:42:46.867719889,9.0,63.0,11.0
1904-01-01 00:18:15.256865889,E4_Acc,2024-06-24 09:42:46.898969889,9.0,63.0,11.0
1904-01-01 00:18:15.288115889,E4_Acc,2024-06-24 09:42:46.930219889,9.0,63.0,11.0
1904-01-01 00:18:15.319365889,E4_Acc,2024-06-24 09:42:46.961469889,9.0,63.0,11.0
1904-01-01 00:18:15.350615889,E4_Acc,2024-06-24 09:42:46.992719889,8.0,63.0,11.0
1904-01-01 00:18:15.381865889,E4_Acc,2024-06-24 09:42:47.023969889,8.0,63.0,11.0
1904-01-01 00:18:15.413115889,E4_Acc,2024-06-24 09:42:47.055219889,9.0,63.0,11.0
1904-01-01 00:18:15.444375902,E4_Acc,2024-06-24 09:42:47.086479902,9.0,63.0,11.0
1904-01-01 00:18:15.475625902,E4_Acc,2024-06-24 09:42:47.117729902,9.0,63.0,11.0
1904-01-01 00:18:15.506875902,E4_Acc,2024-06-24 09:42:47.148979902,9.0,63.0,11.0
1904-01-01 00:18:15.538125902,E4_Acc,2024-06-24 09:42:47.180229902,9.0,63.0,11.0
1904-01-01 00:18:15.569375902,E4_Acc,2024-06-24 09:42:47.211479902,9.0,63.0,11.0
1904-01-01 00:18:15.600625902,E4_Acc,2024-06-24 09:42:47.242729902,9.0,63.0,11.0
1904-01-01 00:18:15.631875902,E4_Acc,2024-06-24 09:42:47.273979902,9.0,63.0,11.0
1904-01-01 00:18:15.663135916,E4_Acc,2024-06-24 09:42:47.305239916,8.0,63.0,11.0
1904-01-01 00:18:15.694385916,E4_Acc,2024-06-24 09:42:47.336489916,8.0,63.0,11.0
1904-01-01 00:18:15.725635916,E4_Acc,2024-06-24 09:42:47.367739916,8.0,63.0,11.0
1904-01-01 00:18:15.756885916,E4_Acc,2024-06-24 09:42:47.398989916,8.0,63.0,11.0
1904-01-01 00:18:15.788135916,E4_Acc,2024-06-24 09:42:47.430239916,8.0,63.0,11.0
1904-01-01 00:18:15.819385916,E4_Acc,2024-06-24 09:42:47.461489916,7.0,63.0,11.0
1904-01-01 00:18:15.850635916,E4_Acc,2024-06-24 09:42:47.492739916,7.0,63.0,11.0
1904-01-01 00:18:15.881895929,E4_Acc,2024-06-24 09:42:47.523999929,7.0,63.0,11.0
1904-01-01 00:18:15.913145929,E4_Acc,2024-06-24 09:42:47.555249929,8.0,63.0,11.0
1904-01-01 00:18:15.944395929,E4_Acc,2024-06-24 09:42:47.586499929,8.0,63.0,11.0
1904-01-01 00:18:15.975645929,E4_Acc,2024-06-24 09:42:47.617749929,8.0,63.0,11.0
1904-01-01 00:18:16.006895929,E4_Acc,2024-06-24 09:42:47.648999929,8.0,63.0,11.0
1904-01-01 00:18:16.038145929,E4_Acc,2024-06-24 09:42:47.680249929,8.0,63.0,11.0
1904-01-01 00:18:16.069395929,E4_Acc,2024-06-24 09:42:47.711499929,8.0,63.0,11.0
1904-01-01 00:18:16.100655943,E4_Acc,2024-06-24 09:42:47.742759943,8.0,63.0,11.0
1904-01-01 00:18:16.131905943,E4_Acc,2024-06-24 09:42:47.774009943,8.0,63.0,11.0
1904-01-01 00:18:16.163155943,E4_Acc,2024-06-24 09:42:47.805259943,8.0,63.0,11.0
1904-01-01 00:18:16.194405943,E4_Acc,2024-06-24 09:42:47.836509943,8.0,63.0,11.0
1904-01-01 00:18:16.225655943,E4_Acc,2024-06-24 09:42:47.867759943,8.0,63.0,11.0
1904-01-01 00:18:16.256905943,E4_Acc,2024-06-24 09:42:47.899009943,8.0,63.0,10.0
1904-01-01 00:18:16.288155943,E4_Acc,2024-06-24 09:42:47.930259943,7.0,63.0,11.0
1904-01-01 00:18:16.319415957,E4_Acc,2024-06-24 09:42:47.961519957,8.0,63.0,11.0
1904-01-01 00:18:16.350665957,E4_Acc,2024-06-24 09:42:47.992769957,7.0,63.0,11.0
1904-01-01 00:18:16.381915957,E4_Acc,2024-06-24 09:42:48.024019957,7.0,63.0,11.0
1904-01-01 00:18:16.413165957,E4_Acc,2024-06-24 09:42:48.055269957,7.0,63.0,11.0
1904-01-01 00:18:16.444415957,E4_Acc,2024-06-24 09:42:48.086519957,8.0,63.0,11.0
1904-01-01 00:18:16.475665957,E4_Acc,2024-06-24 09:42:48.117769957,8.0,63.0,11.0
1904-01-01 00:18:16.506915957,E4_Acc,2024-06-24 09:42:48.149019957,8.0,63.0,11.0
1904-01-01 00:18:16.538175970,E4_Acc,2024-06-24 09:42:48.180279970,8.0,63.0,11.0
1904-01-01 00:18:16.569425970,E4_Acc,2024-06-24 09:42:48.211529970,8.0,63.0,11.0
1904-01-01 00:18:16.600675970,E4_Acc,2024-06-24 09:42:48.242779970,8.0,63.0,11.0
1904-01-01 00:18:16.631925970,E4_Acc,2024-06-24 09:42:48.274029970,7.0,63.0,11.0
1904-01-01 00:18:16.663175970,E4_Acc,2024-06-24 09:42:48.305279970,8.0,63.0,11.0
1904-01-01 00:18:16.694425970,E4_Acc,2024-06-24 09:42:48.336529970,8.0,63.0,11.0
1904-01-01 00:18:16.725675970,E4_Acc,2024-06-24 09:42:48.367779970,7.0,63.0,11.0
1904-01-01 00:18:16.756935984,E4_Acc,2024-06-24 09:42:48.399039984,7.0,63.0,11.0
1904-01-01 00:18:16.788185984,E4_Acc,2024-06-24 09:42:48.430289984,7.0,63.0,11.0
1904-01-01 00:18:16.819435984,E4_Acc,2024-06-24 09:42:48.461539984,8.0,63.0,11.0
1904-01-01 00:18:16.850685984,E4_Acc,2024-06-24 09:42:48.492789984,8.0,63.0,11.0
1904-01-01 00:18:16.881935983,E4_Acc,2024-06-24 09:42:48.524039983,8.0,63.0,11.0
1904-01-01 00:18:16.913185984,E4_Acc,2024-06-24 09:42:48.555289984,8.0,63.0,11.0
1904-01-01 00:18:16.944435984,E4_Acc,2024-06-24 09:42:48.586539984,8.0,63.0,11.0
1904-01-01 00:18:16.975695997,E4_Acc,2024-06-24 09:42:48.617799997,8.0,63.0,11.0
1904-01-01 00:18:17.006945997,E4_Acc,2024-06-24 09:42:48.649049997,8.0,63.0,11.0
1904-01-01 00:18:17.038195997,E4_Acc,2024-06-24 09:42:48.680299997,8.0,63.0,11.0
1904-01-01 00:18:17.069445997,E4_Acc,2024-06-24 09:42:48.711549997,8.0,63.0,11.0
1904-01-01 00:18:17.100695997,E4_Acc,2024-06-24 09:42:48.742799997,8.0,63.0,11.0
1904-01-01 00:18:17.131945997,E4_Acc,2024-06-24 09:42:48.774049997,8.0,63.0,11.0
1904-01-01 00:18:17.163206011,E4_Acc,2024-06-24 09:42:48.805310011,8.0,63.0,11.0
1904-01-01 00:18:17.194456011,E4_Acc,2024-06-24 09:42:48.836560011,8.0,63.0,11.0
1904-01-01 00:18:17.225706011,E4_Acc,2024-06-24 09:42:48.867810011,8.0,63.0,11.0
1904-01-01 00:18:17.256956011,E4_Acc,2024-06-24 09:42:48.899060011,8.0,63.0,11.0
1904-01-01 00:18:17.288206011,E4_Acc,2024-06-24 09:42:48.930310011,8.0,63.0,11.0
1904-01-01 00:18:17.319456011,E4_Acc,2024-06-24 09:42:48.961560011,8.0,63.0,11.0
1904-01-01 00:18:17.350706011,E4_Acc,2024-06-24 09:42:48.992810011,8.0,63.0,11.0
1904-01-01 00:18:17.381966024,E4_Acc,2024-06-24 09:42:49.024070024,8.0,63.0,11.0
1904-01-01 00:18:17.413216024,E4_Acc,2024-06-24 09:42:49.055320024,8.0,63.0,11.0
1904-01-01 00:18:17.444466024,E4_Acc,2024-06-24 09:42:49.086570024,8.0,63.0,11.0
1904-01-01 00:18:17.475716024,E4_Acc,2024-06-24 09:42:49.117820024,8.0,63.0,11.0
1904-01-01 00:18:17.506966024,E4_Acc,2024-06-24 09:42:49.149070024,8.0,63.0,11.0
1904-01-01 00:18:17.538216024,E4_Acc,2024-06-24 09:42:49.180320024,8.0,63.0,11.0
1904-01-01 00:18:17.569466024,E4_Acc,2024-06-24 09:42:49.211570024,8.0,63.0,11.0
1904-01-01 00:18:17.600726038,E4_Acc,2024-06-24 09:42:49.242830038,8.0,63.0,11.0
1904-01-01 00:18:17.631976038,E4_Acc,2024-06-24 09:42:49.274080038,8.0,63.0,11.0
1904-01-01 00:18:17.663226038,E4_Acc,2024-06-24 09:42:49.305330038,8.0,63.0,11.0
1904-01-01 00:18:17.694476038,E4_Acc,2024-06-24 09:42:49.336580038,8.0,63.0,11.0
1904-01-01 00:18:17.725726038,E4_Acc,2024-06-24 09:42:49.367830038,8.0,63.0,11.0
1904-01-01 00:18:17.756976038,E4_Acc,2024-06-24 09:42:49.399080038,9.0,63.0,11.0
1904-01-01 00:18:17.788226038,E4_Acc,2024-06-24 09:42:49.430330038,8.0,63.0,11.0
1904-01-01 00:18:17.819486052,E4_Acc,2024-06-24 09:42:49.461590052,8.0,63.0,11.0
1904-01-01 00:18:17.850736052,E4_Acc,2024-06-24 09:42:49.492840052,8.0,63.0,11.0
1904-01-01 00:18:17.881986052,E4_Acc,2024-06-24 09:42:49.524090052,8.0,63.0,11.0
1904-01-01 00:18:17.913236052,E4_Acc,2024-06-24 09:42:49.555340052,8.0,63.0,11.0
1904-01-01 00:18:17.944486052,E4_Acc,2024-06-24 09:42:49.586590052,8.0,63.0,11.0
1904-01-01 00:18:17.975736052,E4_Acc,2024-06-24 09:42:49.617840052,8.0,63.0,11.0
1904-01-01 00:18:18.006986052,E4_Acc,2024-06-24 09:42:49.649090052,8.0,63.0,11.0
1904-01-01 00:18:18.038246065,E4_Acc,2024-06-24 09:42:49.680350065,8.0,63.0,11.0
1904-01-01 00:18:18.069496065,E4_Acc,2024-06-24 09:42:49.711600065,8.0,63.0,11.0
1904-01-01 00:18:18.100746065,E4_Acc,2024-06-24 09:42:49.742850065,8.0,63.0,11.0
1904-01-01 00:18:18.131996065,E4_Acc,2024-06-24 09:42:49.774100065,8.0,63.0,11.0
1904-01-01 00:18:18.163246065,E4_Acc,2024-06-24 09:42:49.805350065,8.0,63.0,11.0
1904-01-01 00:18:18.194496065,E4_Acc,2024-06-24 09:42:49.836600065,8.0,63.0,11.0
1904-01-01 00:18:18.225746065,E4_Acc,2024-06-24 09:42:49.867850065,8.0,63.0,11.0
1904-01-01 00:18:18.257006079,E4_Acc,2024-06-24 09:42:49.899110079,8.0,63.0,11.0
1904-01-01 00:18:18.288256079,E4_Acc,2024-06-24 09:42:49.930360079,8.0,63.0,11.0
1904-01-01 00:18:18.319506079,E4_Acc,2024-06-24 09:42:49.961610079,8.0,63.0,11.0
1904-01-01 00:18:18.350756079,E4_Acc,2024-06-24 09:42:49.992860079,8.0,63.0,11.0
1904-01-01 00:18:18.382006079,E4_Acc,2024-06-24 09:42:50.024110079,8.0,63.0,11.0
1904-01-01 00:18:18.413256079,E4_Acc,2024-06-24 09:42:50.055360079,8.0,63.0,11.0
1904-01-01 00:18:18.444506079,E4_Acc,2024-06-24 09:42:50.086610079,8.0,63.0,11.0
1904-01-01 00:18:18.475766092,E4_Acc,2024-06-24 09:42:50.117870092,8.0,63.0,11.0
1904-01-01 00:18:18.507016092,E4_Acc,2024-06-24 09:42:50.149120092,8.0,63.0,11.0
1904-01-01 00:18:18.538266092,E4_Acc,2024-06-24 09:42:50.180370092,8.0,63.0,11.0
1904-01-01 00:18:18.569516092,E4_Acc,2024-06-24 09:42:50.211620092,8.0,63.0,11.0
1904-01-01 00:18:18.600766092,E4_Acc,2024-06-24 09:42:50.242870092,8.0,63.0,11.0
1904-01-01 00:18:18.632016092,E4_Acc,2024-06-24 09:42:50.274120092,8.0,63.0,11.0
1904-01-01 00:18:18.663266092,E4_Acc,2024-06-24 09:42:50.305370092,8.0,63.0,10.0
1904-01-01 00:18:18.694526106,E4_Acc,2024-06-24 09:42:50.336630106,8.0,63.0,11.0
1904-01-01 00:18:18.725776106,E4_Acc,2024-06-24 09:42:50.367880106,8.0,63.0,11.0
1904-01-01 00:18:18.757026106,E4_Acc,2024-06-24 09:42:50.399130106,8.0,63.0,10.0
1904-01-01 00:18:18.788276106,E4_Acc,2024-06-24 09:42:50.430380106,8.0,63.0,11.0
1904-01-01 00:18:18.819526106,E4_Acc,2024-06-24 09:42:50.461630106,8.0,63.0,11.0
1904-01-01 00:18:18.850776106,E4_Acc,2024-06-24 09:42:50.492880106,8.0,63.0,10.0
1904-01-01 00:18:18.882026106,E4_Acc,2024-06-24 09:42:50.524130106,8.0,63.0,10.0
1904-01-01 00:18:18.913285881,E4_Acc,2024-06-24 09:42:50.555389881,8.0,63.0,10.0
1904-01-01 00:18:18.944535881,E4_Acc,2024-06-24 09:42:50.586639881,8.0,63.0,10.0
1904-01-01 00:18:18.975785881,E4_Acc,2024-06-24 09:42:50.617889881,8.0,63.0,10.0
1904-01-01 00:18:19.007035881,E4_Acc,2024-06-24 09:42:50.649139881,8.0,63.0,10.0
1904-01-01 00:18:19.038285881,E4_Acc,2024-06-24 09:42:50.680389881,8.0,63.0,10.0
1904-01-01 00:18:19.069535881,E4_Acc,2024-06-24 09:42:50.711639881,8.0,63.0,10.0
1904-01-01 00:18:19.100785881,E4_Acc,2024-06-24 09:42:50.742889881,8.0,63.0,11.0
1904-01-01 00:18:19.132045895,E4_Acc,2024-06-24 09:42:50.774149895,8.0,63.0,11.0
1904-01-01 00:18:19.163295895,E4_Acc,2024-06-24 09:42:50.805399895,8.0,63.0,10.0
1904-01-01 00:18:19.194545895,E4_Acc,2024-06-24 09:42:50.836649895,8.0,63.0,11.0
1904-01-01 00:18:19.225795895,E4_Acc,2024-06-24 09:42:50.867899895,8.0,63.0,10.0
1904-01-01 00:18:19.257045895,E4_Acc,2024-06-24 09:42:50.899149895,8.0,63.0,10.0
1904-01-01 00:18:19.288295895,E4_Acc,2024-06-24 09:42:50.930399895,8.0,63.0,10.0
1904-01-01 00:18:19.319545895,E4_Acc,2024-06-24 09:42:50.961649895,8.0,63.0,10.0
1904-01-01 00:18:19.350805908,E4_Acc,2024-06-24 09:42:50.992909908,8.0,63.0,11.0
1904-01-01 00:18:19.382055908,E4_Acc,2024-06-24 09:42:51.024159908,8.0,63.0,10.0
1904-01-01 00:18:19.413305908,E4_Acc,2024-06-24 09:42:51.055409908,7.0,63.0,10.0
1904-01-01 00:18:19.444555908,E4_Acc,2024-06-24 09:42:51.086659908,8.0,63.0,10.0
1904-01-01 00:18:19.475805908,E4_Acc,2024-06-24 09:42:51.117909908,7.0,63.0,10.0
1904-01-01 00:18:19.507055908,E4_Acc,2024-06-24 09:42:51.149159908,8.0,63.0,10.0
1904-01-01 00:18:19.538305908,E4_Acc,2024-06-24 09:42:51.180409908,8.0,63.0,10.0
1904-01-01 00:18:19.569565922,E4_Acc,2024-06-24 09:42:51.211669922,8.0,63.0,10.0
1904-01-01 00:18:19.600815922,E4_Acc,2024-06-24 09:42:51.242919922,8.0,63.0,10.0
1904-01-01 00:18:19.632065922,E4_Acc,2024-06-24 09:42:51.274169922,8.0,63.0,10.0
1904-01-01 00:18:19.663315922,E4_Acc,2024-06-24 09:42:51.305419922,8.0,63.0,10.0
1904-01-01 00:18:19.694565922,E4_Acc,2024-06-24 09:42:51.336669922,8.0,63.0,11.0
1904-01-01 00:18:19.725815922,E4_Acc,2024-06-24 09:42:51.367919922,8.0,63.0,11.0
1904-01-01 00:18:19.757075935,E4_Acc,2024-06-24 09:42:51.399179935,8.0,63.0,11.0
1904-01-01 00:18:19.788325935,E4_Acc,2024-06-24 09:42:51.430429935,8.0,63.0,11.0
1904-01-01 00:18:19.819575935,E4_Acc,2024-06-24 09:42:51.461679935,8.0,63.0,11.0
1904-01-01 00:18:19.850825935,E4_Acc,2024-06-24 09:42:51.492929935,7.0,63.0,10.0
1904-01-01 00:18:19.882075935,E4_Acc,2024-06-24 09:42:51.524179935,8.0,63.0,10.0
1904-01-01 00:18:19.913325935,E4_Acc,2024-06-24 09:42:51.555429935,8.0,63.0,10.0
1904-01-01 00:18:19.944575935,E4_Acc,2024-06-24 09:42:51.586679935,7.0,63.0,10.0
1904-01-01 00:18:19.975835949,E4_Acc,2024-06-24 09:42:51.617939949,7.0,63.0,10.0
1904-01-01 00:18:20.007085949,E4_Acc,2024-06-24 09:42:51.649189949,7.0,63.0,10.0
1904-01-01 00:18:20.038335949,E4_Acc,2024-06-24 09:42:51.680439949,8.0,63.0,10.0
1904-01-01 00:18:20.069585949,E4_Acc,2024-06-24 09:42:51.711689949,8.0,63.0,10.0
1904-01-01 00:18:20.100835949,E4_Acc,2024-06-24 09:42:51.742939949,8.0,63.0,10.0
1904-01-01 00:18:20.132085949,E4_Acc,2024-06-24 09:42:51.774189949,8.0,63.0,10.0
1904-01-01 00:18:20.163335949,E4_Acc,2024-06-24 09:42:51.805439949,8.0,63.0,10.0
1904-01-01 00:18:20.194595963,E4_Acc,2024-06-24 09:42:51.836699963,8.0,63.0,10.0
1904-01-01 00:18:20.225845963,E4_Acc,2024-06-24 09:42:51.867949963,8.0,63.0,10.0
1904-01-01 00:18:20.257095963,E4_Acc,2024-06-24 09:42:51.899199963,8.0,63.0,10.0
1904-01-01 00:18:20.288345963,E4_Acc,2024-06-24 09:42:51.930449963,8.0,63.0,10.0
1904-01-01 00:18:20.319595963,E4_Acc,2024-06-24 09:42:51.961699963,8.0,63.0,11.0
1904-01-01 00:18:20.350845963,E4_Acc,2024-06-24 09:42:51.992949963,8.0,63.0,11.0
1904-01-01 00:18:20.382095963,E4_Acc,2024-06-24 09:42:52.024199963,8.0,63.0,10.0
1904-01-01 00:18:20.413355976,E4_Acc,2024-06-24 09:42:52.055459976,8.0,63.0,10.0
1904-01-01 00:18:20.444605976,E4_Acc,2024-06-24 09:42:52.086709976,8.0,63.0,10.0
1904-01-01 00:18:20.475855976,E4_Acc,2024-06-24 09:42:52.117959976,8.0,63.0,10.0
1904-01-01 00:18:20.507105976,E4_Acc,2024-06-24 09:42:52.149209976,8.0,63.0,10.0
1904-01-01 00:18:20.538355976,E4_Acc,2024-06-24 09:42:52.180459976,8.0,63.0,10.0
1904-01-01 00:18:20.569605976,E4_Acc,2024-06-24 09:42:52.211709976,8.0,63.0,10.0
1904-01-01 00:18:20.600855976,E4_Acc,2024-06-24 09:42:52.242959976,8.0,64.0,10.0
1904-01-01 00:18:20.632115990,E4_Acc,2024-06-24 09:42:52.274219990,8.0,63.0,10.0
1904-01-01 00:18:20.663365990,E4_Acc,2024-06-24 09:42:52.305469990,8.0,63.0,10.0
1904-01-01 00:18:20.694615990,E4_Acc,2024-06-24 09:42:52.336719990,8.0,63.0,10.0
1904-01-01 00:18:20.725865990,E4_Acc,2024-06-24 09:42:52.367969990,8.0,63.0,10.0
1904-01-01 00:18:20.757115990,E4_Acc,2024-06-24 09:42:52.399219990,8.0,63.0,10.0
1904-01-01 00:18:20.788365990,E4_Acc,2024-06-24 09:42:52.430469990,8.0,63.0,10.0
1904-01-01 00:18:20.819615990,E4_Acc,2024-06-24 09:42:52.461719990,8.0,63.0,10.0
1904-01-01 00:18:20.850876003,E4_Acc,2024-06-24 09:42:52.492980003,8.0,63.0,10.0
1904-01-01 00:18:20.882126003,E4_Acc,2024-06-24 09:42:52.524230003,8.0,63.0,10.0
1904-01-01 00:18:20.913376003,E4_Acc,2024-06-24 09:42:52.555480003,8.0,63.0,10.0
1904-01-01 00:18:20.944626003,E4_Acc,2024-06-24 09:42:52.586730003,8.0,63.0,10.0
1904-01-01 00:18:20.975876003,E4_Acc,2024-06-24 09:42:52.617980003,8.0,63.0,10.0
1904-01-01 00:18:21.007126003,E4_Acc,2024-06-24 09:42:52.649230003,8.0,63.0,10.0
1904-01-01 00:18:21.038376003,E4_Acc,2024-06-24 09:42:52.680480003,8.0,63.0,10.0
1904-01-01 00:18:21.069636017,E4_Acc,2024-06-24 09:42:52.711740017,8.0,63.0,10.0
1904-01-01 00:18:21.100886017,E4_Acc,2024-06-24 09:42:52.742990017,8.0,63.0,10.0
1904-01-01 00:18:21.132136017,E4_Acc,2024-06-24 09:42:52.774240017,8.0,63.0,10.0
1904-01-01 00:18:21.163386017,E4_Acc,2024-06-24 09:42:52.805490017,8.0,63.0,10.0
1904-01-01 00:18:21.194636017,E4_Acc,2024-06-24 09:42:52.836740017,8.0,63.0,10.0
1904-01-01 00:18:21.225886017,E4_Acc,2024-06-24 09:42:52.867990017,8.0,63.0,10.0
1904-01-01 00:18:21.257136017,E4_Acc,2024-06-24 09:42:52.899240017,8.0,63.0,10.0
1904-01-01 00:18:21.288396031,E4_Acc,2024-06-24 09:42:52.930500031,8.0,63.0,10.0
1904-01-01 00:18:21.319646031,E4_Acc,2024-06-24 09:42:52.961750031,8.0,63.0,10.0
1904-01-01 00:18:21.350896031,E4_Acc,2024-06-24 09:42:52.993000031,8.0,63.0,10.0
1904-01-01 00:18:21.382146031,E4_Acc,2024-06-24 09:42:53.024250031,8.0,63.0,10.0
1904-01-01 00:18:21.413396031,E4_Acc,2024-06-24 09:42:53.055500031,8.0,63.0,10.0
1904-01-01 00:18:21.444646031,E4_Acc,2024-06-24 09:42:53.086750031,7.0,63.0,10.0
1904-01-01 00:18:21.475896031,E4_Acc,2024-06-24 09:42:53.118000031,8.0,63.0,9.0
1904-01-01 00:18:21.507156044,E4_Acc,2024-06-24 09:42:53.149260044,8.0,63.0,10.0
1904-01-01 00:18:21.538406044,E4_Acc,2024-06-24 09:42:53.180510044,8.0,63.0,10.0
1904-01-01 00:18:21.569656044,E4_Acc,2024-06-24 09:42:53.211760044,8.0,63.0,9.0
1904-01-01 00:18:21.600906044,E4_Acc,2024-06-24 09:42:53.243010044,8.0,63.0,10.0
1904-01-01 00:18:21.632156044,E4_Acc,2024-06-24 09:42:53.274260044,8.0,63.0,10.0
1904-01-01 00:18:21.663406044,E4_Acc,2024-06-24 09:42:53.305510044,8.0,63.0,10.0
1904-01-01 00:18:21.694656044,E4_Acc,2024-06-24 09:42:53.336760044,8.0,63.0,10.0
1904-01-01 00:18:21.725916058,E4_Acc,2024-06-24 09:42:53.368020058,8.0,63.0,10.0
1904-01-01 00:18:21.757166058,E4_Acc,2024-06-24 09:42:53.399270058,8.0,63.0,10.0
1904-01-01 00:18:21.788416058,E4_Acc,2024-06-24 09:42:53.430520058,8.0,63.0,10.0
1904-01-01 00:18:21.819666058,E4_Acc,2024-06-24 09:42:53.461770058,8.0,63.0,10.0
1904-01-01 00:18:21.850916058,E4_Acc,2024-06-24 09:42:53.493020058,8.0,63.0,10.0
1904-01-01 00:18:21.882166058,E4_Acc,2024-06-24 09:42:53.524270058,8.0,63.0,10.0
1904-01-01 00:18:21.913426071,E4_Acc,2024-06-24 09:42:53.555530071,8.0,63.0,10.0
1904-01-01 00:18:21.944676071,E4_Acc,2024-06-24 09:42:53.586780071,8.0,63.0,10.0
1904-01-01 00:18:21.975926071,E4_Acc,2024-06-24 09:42:53.618030071,8.0,63.0,10.0
1904-01-01 00:18:22.007176071,E4_Acc,2024-06-24 09:42:53.649280071,8.0,63.0,10.0
1904-01-01 00:18:22.038426071,E4_Acc,2024-06-24 09:42:53.680530071,8.0,63.0,10.0
1904-01-01 00:18:22.069676071,E4_Acc,2024-06-24 09:42:53.711780071,8.0,63.0,10.0
1904-01-01 00:18:22.100926071,E4_Acc,2024-06-24 09:42:53.743030071,8.0,63.0,11.0
1904-01-01 00:18:22.132186085,E4_Acc,2024-06-24 09:42:53.774290085,8.0,63.0,10.0
1904-01-01 00:18:22.163436085,E4_Acc,2024-06-24 09:42:53.805540085,8.0,63.0,10.0
1904-01-01 00:18:22.194686085,E4_Acc,2024-06-24 09:42:53.836790085,8.0,63.0,10.0
1904-01-01 00:18:22.225936085,E4_Acc,2024-06-24 09:42:53.868040085,8.0,63.0,10.0
1904-01-01 00:18:22.257186085,E4_Acc,2024-06-24 09:42:53.899290085,8.0,63.0,10.0
1904-01-01 00:18:22.288436085,E4_Acc,2024-06-24 09:42:53.930540085,8.0,63.0,10.0
1904-01-01 00:18:22.319686085,E4_Acc,2024-06-24 09:42:53.961790085,8.0,63.0,10.0
1904-01-01 00:18:22.350946098,E4_Acc,2024-06-24 09:42:53.993050098,8.0,63.0,10.0
1904-01-01 00:18:22.382196098,E4_Acc,2024-06-24 09:42:54.024300098,8.0,63.0,10.0
1904-01-01 00:18:22.413446098,E4_Acc,2024-06-24 09:42:54.055550098,8.0,63.0,10.0
1904-01-01 00:18:22.444696098,E4_Acc,2024-06-24 09:42:54.086800098,8.0,63.0,10.0
1904-01-01 00:18:22.475946098,E4_Acc,2024-06-24 09:42:54.118050098,8.0,63.0,10.0
1904-01-01 00:18:22.507196098,E4_Acc,2024-06-24 09:42:54.149300098,8.0,63.0,10.0
1904-01-01 00:18:22.538446098,E4_Acc,2024-06-24 09:42:54.180550098,8.0,63.0,10.0
1904-01-01 00:18:22.569706112,E4_Acc,2024-06-24 09:42:54.211810112,8.0,63.0,10.0
1904-01-01 00:18:22.600956112,E4_Acc,2024-06-24 09:42:54.243060112,8.0,63.0,10.0
1904-01-01 00:18:22.632206112,E4_Acc,2024-06-24 09:42:54.274310112,8.0,63.0,10.0
1904-01-01 00:18:22.663456112,E4_Acc,2024-06-24 09:42:54.305560112,8.0,63.0,10.0
1904-01-01 00:18:22.694706112,E4_Acc,2024-06-24 09:42:54.336810112,8.0,63.0,10.0
1904-01-01 00:18:22.725956112,E4_Acc,2024-06-24 09:42:54.368060112,8.0,63.0,10.0
1904-01-01 00:18:22.757206112,E4_Acc,2024-06-24 09:42:54.399310112,8.0,63.0,10.0
1904-01-01 00:18:22.788465887,E4_Acc,2024-06-24 09:42:54.430569887,8.0,63.0,10.0
1904-01-01 00:18:22.819715887,E4_Acc,2024-06-24 09:42:54.461819887,8.0,63.0,10.0
1904-01-01 00:18:22.850965887,E4_Acc,2024-06-24 09:42:54.493069887,7.0,63.0,10.0
1904-01-01 00:18:22.882215887,E4_Acc,2024-06-24 09:42:54.524319887,8.0,63.0,11.0
1904-01-01 00:18:22.913465887,E4_Acc,2024-06-24 09:42:54.555569887,8.0,63.0,10.0
1904-01-01 00:18:22.944715887,E4_Acc,2024-06-24 09:42:54.586819887,8.0,63.0,10.0
1904-01-01 00:18:22.975965887,E4_Acc,2024-06-24 09:42:54.618069887,8.0,63.0,10.0
1904-01-01 00:18:23.007225901,E4_Acc,2024-06-24 09:42:54.649329901,8.0,63.0,10.0
1904-01-01 00:18:23.038475901,E4_Acc,2024-06-24 09:42:54.680579901,8.0,63.0,10.0
1904-01-01 00:18:23.069725901,E4_Acc,2024-06-24 09:42:54.711829901,8.0,63.0,10.0
1904-01-01 00:18:23.100975901,E4_Acc,2024-06-24 09:42:54.743079901,8.0,63.0,10.0
1904-01-01 00:18:23.132225901,E4_Acc,2024-06-24 09:42:54.774329901,8.0,63.0,10.0
1904-01-01 00:18:23.163475901,E4_Acc,2024-06-24 09:42:54.805579901,8.0,63.0,10.0
1904-01-01 00:18:23.194725901,E4_Acc,2024-06-24 09:42:54.836829901,8.0,63.0,10.0
1904-01-01 00:18:23.225985914,E4_Acc,2024-06-24 09:42:54.868089914,7.0,63.0,10.0
1904-01-01 00:18:23.257235914,E4_Acc,2024-06-24 09:42:54.899339914,7.0,63.0,10.0
1904-01-01 00:18:23.288485914,E4_Acc,2024-06-24 09:42:54.930589914,7.0,63.0,10.0
1904-01-01 00:18:23.319735914,E4_Acc,2024-06-24 09:42:54.961839914,7.0,63.0,10.0
1904-01-01 00:18:23.350985914,E4_Acc,2024-06-24 09:42:54.993089914,7.0,63.0,10.0
1904-01-01 00:18:23.382235914,E4_Acc,2024-06-24 09:42:55.024339914,8.0,63.0,10.0
1904-01-01 00:18:23.413485914,E4_Acc,2024-06-24 09:42:55.055589914,8.0,63.0,10.0
1904-01-01 00:18:23.444745928,E4_Acc,2024-06-24 09:42:55.086849928,8.0,63.0,10.0
1904-01-01 00:18:23.475995928,E4_Acc,2024-06-24 09:42:55.118099928,8.0,63.0,10.0
1904-01-01 00:18:23.507245928,E4_Acc,2024-06-24 09:42:55.149349928,8.0,63.0,10.0
1904-01-01 00:18:23.538495928,E4_Acc,2024-06-24 09:42:55.180599928,8.0,63.0,10.0
1904-01-01 00:18:23.569745928,E4_Acc,2024-06-24 09:42:55.211849928,8.0,63.0,10.0
1904-01-01 00:18:23.600995928,E4_Acc,2024-06-24 09:42:55.243099928,8.0,63.0,10.0
1904-01-01 00:18:23.632245928,E4_Acc,2024-06-24 09:42:55.274349928,8.0,63.0,10.0
1904-01-01 00:18:23.663505941,E4_Acc,2024-06-24 09:42:55.305609941,8.0,63.0,10.0
1904-01-01 00:18:23.694755941,E4_Acc,2024-06-24 09:42:55.336859941,8.0,63.0,10.0
1904-01-01 00:18:23.726005941,E4_Acc,2024-06-24 09:42:55.368109941,8.0,63.0,10.0
1904-01-01 00:18:23.757255941,E4_Acc,2024-06-24 09:42:55.399359941,8.0,63.0,10.0
1904-01-01 00:18:23.788505941,E4_Acc,2024-06-24 09:42:55.430609941,8.0,63.0,10.0
1904-01-01 00:18:23.819755941,E4_Acc,2024-06-24 09:42:55.461859941,8.0,63.0,10.0
1904-01-01 00:18:23.851005941,E4_Acc,2024-06-24 09:42:55.493109941,8.0,63.0,10.0
1904-01-01 00:18:23.882265955,E4_Acc,2024-06-24 09:42:55.524369955,8.0,63.0,10.0
1904-01-01 00:18:23.913515955,E4_Acc,2024-06-24 09:42:55.555619955,8.0,63.0,10.0
1904-01-01 00:18:23.944765955,E4_Acc,2024-06-24 09:42:55.586869955,8.0,64.0,10.0
1904-01-01 00:18:23.976015955,E4_Acc,2024-06-24 09:42:55.618119955,8.0,63.0,10.0
1904-01-01 00:18:24.007265955,E4_Acc,2024-06-24 09:42:55.649369955,8.0,63.0,10.0
1904-01-01 00:18:24.038515955,E4_Acc,2024-06-24 09:42:55.680619955,8.0,63.0,10.0
1904-01-01 00:18:24.069765955,E4_Acc,2024-06-24 09:42:55.711869955,8.0,63.0,10.0
1904-01-01 00:18:24.101025969,E4_Acc,2024-06-24 09:42:55.743129969,8.0,63.0,10.0
1904-01-01 00:18:24.132275969,E4_Acc,2024-06-24 09:42:55.774379969,8.0,63.0,10.0
1904-01-01 00:18:24.163525969,E4_Acc,2024-06-24 09:42:55.805629969,8.0,63.0,10.0
1904-01-01 00:18:24.194775969,E4_Acc,2024-06-24 09:42:55.836879969,8.0,63.0,10.0
1904-01-01 00:18:24.226025969,E4_Acc,2024-06-24 09:42:55.868129969,8.0,63.0,10.0
1904-01-01 00:18:24.257275969,E4_Acc,2024-06-24 09:42:55.899379969,8.0,63.0,10.0
1904-01-01 00:18:24.288525969,E4_Acc,2024-06-24 09:42:55.930629969,8.0,63.0,10.0
1904-01-01 00:18:24.319785982,E4_Acc,2024-06-24 09:42:55.961889982,8.0,63.0,10.0
1904-01-01 00:18:24.351035982,E4_Acc,2024-06-24 09:42:55.993139982,8.0,63.0,10.0
1904-01-01 00:18:24.382285982,E4_Acc,2024-06-24 09:42:56.024389982,8.0,63.0,10.0
1904-01-01 00:18:24.413535982,E4_Acc,2024-06-24 09:42:56.055639982,8.0,63.0,10.0
1904-01-01 00:18:24.444785982,E4_Acc,2024-06-24 09:42:56.086889982,8.0,63.0,10.0
1904-01-01 00:18:24.476035982,E4_Acc,2024-06-24 09:42:56.118139982,8.0,63.0,10.0
1904-01-01 00:18:24.507285982,E4_Acc,2024-06-24 09:42:56.149389982,8.0,63.0,10.0
1904-01-01 00:18:24.538545996,E4_Acc,2024-06-24 09:42:56.180649996,8.0,63.0,10.0
1904-01-01 00:18:24.569795996,E4_Acc,2024-06-24 09:42:56.211899996,8.0,63.0,10.0
1904-01-01 00:18:24.601045996,E4_Acc,2024-06-24 09:42:56.243149996,8.0,63.0,10.0
1904-01-01 00:18:24.632295996,E4_Acc,2024-06-24 09:42:56.274399996,8.0,63.0,10.0
1904-01-01 00:18:24.663545996,E4_Acc,2024-06-24 09:42:56.305649996,8.0,63.0,10.0
1904-01-01 00:18:24.694795996,E4_Acc,2024-06-24 09:42:56.336899996,8.0,63.0,10.0
1904-01-01 00:18:24.726056009,E4_Acc,2024-06-24 09:42:56.368160009,8.0,63.0,10.0
1904-01-01 00:18:24.757306009,E4_Acc,2024-06-24 09:42:56.399410009,8.0,63.0,10.0
1904-01-01 00:18:24.788556009,E4_Acc,2024-06-24 09:42:56.430660009,8.0,63.0,10.0
1904-01-01 00:18:24.819806009,E4_Acc,2024-06-24 09:42:56.461910009,8.0,63.0,10.0
1904-01-01 00:18:24.851056009,E4_Acc,2024-06-24 09:42:56.493160009,8.0,63.0,10.0
1904-01-01 00:18:24.882306009,E4_Acc,2024-06-24 09:42:56.524410009,8.0,63.0,10.0
1904-01-01 00:18:24.913556009,E4_Acc,2024-06-24 09:42:56.555660009,8.0,63.0,10.0
1904-01-01 00:18:24.944816023,E4_Acc,2024-06-24 09:42:56.586920023,8.0,63.0,10.0
1904-01-01 00:18:24.976066023,E4_Acc,2024-06-24 09:42:56.618170023,8.0,63.0,10.0
1904-01-01 00:18:25.007316023,E4_Acc,2024-06-24 09:42:56.649420023,8.0,63.0,10.0
1904-01-01 00:18:25.038566023,E4_Acc,2024-06-24 09:42:56.680670023,8.0,63.0,10.0
1904-01-01 00:18:25.069816023,E4_Acc,2024-06-24 09:42:56.711920023,8.0,63.0,10.0
1904-01-01 00:18:25.101066023,E4_Acc,2024-06-24 09:42:56.743170023,8.0,63.0,10.0
1904-01-01 00:18:25.132316023,E4_Acc,2024-06-24 09:42:56.774420023,8.0,63.0,10.0
1904-01-01 00:18:25.163576037,E4_Acc,2024-06-24 09:42:56.805680037,8.0,63.0,10.0
1904-01-01 00:18:25.194826037,E4_Acc,2024-06-24 09:42:56.836930037,8.0,63.0,10.0
1904-01-01 00:18:25.226076037,E4_Acc,2024-06-24 09:42:56.868180037,8.0,63.0,10.0
1904-01-01 00:18:25.257326037,E4_Acc,2024-06-24 09:42:56.899430037,8.0,63.0,10.0
1904-01-01 00:18:25.288576037,E4_Acc,2024-06-24 09:42:56.930680037,8.0,63.0,10.0
1904-01-01 00:18:25.319826037,E4_Acc,2024-06-24 09:42:56.961930037,8.0,63.0,10.0
1904-01-01 00:18:25.351076037,E4_Acc,2024-06-24 09:42:56.993180037,8.0,63.0,10.0
1904-01-01 00:18:25.382336050,E4_Acc,2024-06-24 09:42:57.024440050,8.0,63.0,10.0
1904-01-01 00:18:25.413586050,E4_Acc,2024-06-24 09:42:57.055690050,8.0,63.0,10.0
1904-01-01 00:18:25.444836050,E4_Acc,2024-06-24 09:42:57.086940050,8.0,63.0,10.0
1904-01-01 00:18:25.476086050,E4_Acc,2024-06-24 09:42:57.118190050,8.0,63.0,10.0
1904-01-01 00:18:25.507336050,E4_Acc,2024-06-24 09:42:57.149440050,8.0,63.0,10.0
1904-01-01 00:18:25.538586050,E4_Acc,2024-06-24 09:42:57.180690050,8.0,63.0,10.0
1904-01-01 00:18:25.569836050,E4_Acc,2024-06-24 09:42:57.211940050,8.0,63.0,10.0
1904-01-01 00:18:25.601096064,E4_Acc,2024-06-24 09:42:57.243200064,8.0,63.0,10.0
1904-01-01 00:18:25.632346064,E4_Acc,2024-06-24 09:42:57.274450064,8.0,63.0,10.0
1904-01-01 00:18:25.663596064,E4_Acc,2024-06-24 09:42:57.305700064,8.0,63.0,10.0
1904-01-01 00:18:25.694846064,E4_Acc,2024-06-24 09:42:57.336950064,8.0,63.0,10.0
1904-01-01 00:18:25.726096064,E4_Acc,2024-06-24 09:42:57.368200064,8.0,63.0,10.0
1904-01-01 00:18:25.757346064,E4_Acc,2024-06-24 09:42:57.399450064,8.0,63.0,10.0
1904-01-01 00:18:25.788596064,E4_Acc,2024-06-24 09:42:57.430700064,8.0,63.0,10.0
1904-01-01 00:18:25.819856077,E4_Acc,2024-06-24 09:42:57.461960077,8.0,63.0,10.0
1904-01-01 00:18:25.851106077,E4_Acc,2024-06-24 09:42:57.493210077,8.0,63.0,10.0
1904-01-01 00:18:25.882356076,E4_Acc,2024-06-24 09:42:57.524460076,8.0,63.0,10.0
1904-01-01 00:18:25.913606077,E4_Acc,2024-06-24 09:42:57.555710077,8.0,63.0,10.0
1904-01-01 00:18:25.944856077,E4_Acc,2024-06-24 09:42:57.586960077,8.0,64.0,10.0
1904-01-01 00:18:25.976106077,E4_Acc,2024-06-24 09:42:57.618210077,8.0,63.0,10.0
1904-01-01 00:18:26.007356077,E4_Acc,2024-06-24 09:42:57.649460077,8.0,63.0,10.0
1904-01-01 00:18:26.038616091,E4_Acc,2024-06-24 09:42:57.680720091,8.0,63.0,10.0
1904-01-01 00:18:26.069866091,E4_Acc,2024-06-24 09:42:57.711970091,8.0,63.0,10.0
1904-01-01 00:18:26.101116091,E4_Acc,2024-06-24 09:42:57.743220091,8.0,63.0,10.0
1904-01-01 00:18:26.132366091,E4_Acc,2024-06-24 09:42:57.774470091,8.0,63.0,10.0
1904-01-01 00:18:26.163616091,E4_Acc,2024-06-24 09:42:57.805720091,8.0,63.0,10.0
1904-01-01 00:18:26.194866091,E4_Acc,2024-06-24 09:42:57.836970091,8.0,63.0,10.0
1904-01-01 00:18:26.226116091,E4_Acc,2024-06-24 09:42:57.868220091,8.0,63.0,9.0
1904-01-01 00:18:26.257376104,E4_Acc,2024-06-24 09:42:57.899480104,8.0,63.0,9.0
1904-01-01 00:18:26.288626104,E4_Acc,2024-06-24 09:42:57.930730104,8.0,63.0,9.0
1904-01-01 00:18:26.319876104,E4_Acc,2024-06-24 09:42:57.961980104,8.0,63.0,9.0
1904-01-01 00:18:26.351126104,E4_Acc,2024-06-24 09:42:57.993230104,8.0,63.0,9.0
1904-01-01 00:18:26.382376104,E4_Acc,2024-06-24 09:42:58.024480104,7.0,63.0,9.0
1904-01-01 00:18:26.413626104,E4_Acc,2024-06-24 09:42:58.055730104,7.0,63.0,9.0
1904-01-01 00:18:26.444876104,E4_Acc,2024-06-24 09:42:58.086980104,7.0,63.0,9.0
1904-01-01 00:18:26.476136118,E4_Acc,2024-06-24 09:42:58.118240118,7.0,63.0,9.0
1904-01-01 00:18:26.507386118,E4_Acc,2024-06-24 09:42:58.149490118,8.0,63.0,9.0
1904-01-01 00:18:26.538636118,E4_Acc,2024-06-24 09:42:58.180740118,8.0,63.0,9.0
1904-01-01 00:18:26.569886118,E4_Acc,2024-06-24 09:42:58.211990118,8.0,63.0,10.0
1904-01-01 00:18:26.601136118,E4_Acc,2024-06-24 09:42:58.243240118,7.0,63.0,9.0
1904-01-01 00:18:26.632386118,E4_Acc,2024-06-24 09:42:58.274490118,8.0,63.0,9.0
1904-01-01 00:18:26.663636118,E4_Acc,2024-06-24 09:42:58.305740118,8.0,63.0,10.0
1904-01-01 00:18:26.694895893,E4_Acc,2024-06-24 09:42:58.336999893,8.0,63.0,10.0
1904-01-01 00:18:26.726145893,E4_Acc,2024-06-24 09:42:58.368249893,8.0,63.0,10.0
1904-01-01 00:18:26.757395893,E4_Acc,2024-06-24 09:42:58.399499893,8.0,63.0,10.0
1904-01-01 00:18:26.788645893,E4_Acc,2024-06-24 09:42:58.430749893,8.0,63.0,10.0
1904-01-01 00:18:26.819895893,E4_Acc,2024-06-24 09:42:58.461999893,8.0,63.0,10.0
1904-01-01 00:18:26.851145893,E4_Acc,2024-06-24 09:42:58.493249893,8.0,64.0,10.0
1904-01-01 00:18:26.882405907,E4_Acc,2024-06-24 09:42:58.524509907,8.0,63.0,10.0
1904-01-01 00:18:26.913655907,E4_Acc,2024-06-24 09:42:58.555759907,7.0,63.0,10.0
1904-01-01 00:18:26.944905907,E4_Acc,2024-06-24 09:42:58.587009907,7.0,63.0,10.0
1904-01-01 00:18:26.976155907,E4_Acc,2024-06-24 09:42:58.618259907,8.0,63.0,10.0
1904-01-01 00:18:27.007405907,E4_Acc,2024-06-24 09:42:58.649509907,7.0,63.0,9.0
1904-01-01 00:18:27.038655907,E4_Acc,2024-06-24 09:42:58.680759907,8.0,63.0,9.0
1904-01-01 00:18:27.069905907,E4_Acc,2024-06-24 09:42:58.712009907,8.0,63.0,9.0
1904-01-01 00:18:27.101165920,E4_Acc,2024-06-24 09:42:58.743269920,8.0,63.0,10.0
1904-01-01 00:18:27.132415920,E4_Acc,2024-06-24 09:42:58.774519920,8.0,63.0,10.0
1904-01-01 00:18:27.163665920,E4_Acc,2024-06-24 09:42:58.805769920,8.0,63.0,10.0
1904-01-01 00:18:27.194915920,E4_Acc,2024-06-24 09:42:58.837019920,8.0,63.0,10.0
1904-01-01 00:18:27.226165920,E4_Acc,2024-06-24 09:42:58.868269920,8.0,63.0,10.0
1904-01-01 00:18:27.257415920,E4_Acc,2024-06-24 09:42:58.899519920,8.0,63.0,10.0
1904-01-01 00:18:27.288665920,E4_Acc,2024-06-24 09:42:58.930769920,8.0,63.0,10.0
1904-01-01 00:18:27.319925934,E4_Acc,2024-06-24 09:42:58.962029934,8.0,63.0,10.0
1904-01-01 00:18:27.351175934,E4_Acc,2024-06-24 09:42:58.993279934,8.0,63.0,10.0
1904-01-01 00:18:27.382425934,E4_Acc,2024-06-24 09:42:59.024529934,8.0,63.0,10.0
1904-01-01 00:18:27.413675934,E4_Acc,2024-06-24 09:42:59.055779934,8.0,63.0,10.0
1904-01-01 00:18:27.444925934,E4_Acc,2024-06-24 09:42:59.087029934,8.0,63.0,10.0
1904-01-01 00:18:27.476175934,E4_Acc,2024-06-24 09:42:59.118279934,8.0,63.0,10.0
1904-01-01 00:18:27.507425934,E4_Acc,2024-06-24 09:42:59.149529934,8.0,63.0,10.0
1904-01-01 00:18:27.538685948,E4_Acc,2024-06-24 09:42:59.180789948,8.0,63.0,10.0
1904-01-01 00:18:27.569935948,E4_Acc,2024-06-24 09:42:59.212039948,8.0,63.0,10.0
1904-01-01 00:18:27.601185948,E4_Acc,2024-06-24 09:42:59.243289948,8.0,63.0,10.0
1904-01-01 00:18:27.632435948,E4_Acc,2024-06-24 09:42:59.274539948,8.0,63.0,10.0
1904-01-01 00:18:27.663685948,E4_Acc,2024-06-24 09:42:59.305789948,8.0,63.0,10.0
1904-01-01 00:18:27.694935948,E4_Acc,2024-06-24 09:42:59.337039948,8.0,63.0,10.0
1904-01-01 00:18:27.726185948,E4_Acc,2024-06-24 09:42:59.368289948,8.0,63.0,10.0
1904-01-01 00:18:27.757445961,E4_Acc,2024-06-24 09:42:59.399549961,8.0,63.0,10.0
1904-01-01 00:18:27.788695961,E4_Acc,2024-06-24 09:42:59.430799961,8.0,63.0,10.0
1904-01-01 00:18:27.819945961,E4_Acc,2024-06-24 09:42:59.462049961,8.0,63.0,10.0
1904-01-01 00:18:27.851195961,E4_Acc,2024-06-24 09:42:59.493299961,8.0,63.0,10.0
1904-01-01 00:18:27.882445960,E4_Acc,2024-06-24 09:42:59.524549960,8.0,63.0,10.0
1904-01-01 00:18:27.913695961,E4_Acc,2024-06-24 09:42:59.555799961,8.0,63.0,10.0
1904-01-01 00:18:27.944945961,E4_Acc,2024-06-24 09:42:59.587049961,8.0,63.0,10.0
1904-01-01 00:18:27.976205975,E4_Acc,2024-06-24 09:42:59.618309975,8.0,63.0,10.0
1904-01-01 00:18:28.007455975,E4_Acc,2024-06-24 09:42:59.649559975,8.0,63.0,10.0
1904-01-01 00:18:28.038705975,E4_Acc,2024-06-24 09:42:59.680809975,8.0,63.0,10.0
1904-01-01 00:18:28.069955975,E4_Acc,2024-06-24 09:42:59.712059975,8.0,63.0,10.0
1904-01-01 00:18:28.101205975,E4_Acc,2024-06-24 09:42:59.743309975,8.0,63.0,10.0
1904-01-01 00:18:28.132455975,E4_Acc,2024-06-24 09:42:59.774559975,8.0,63.0,10.0
1904-01-01 00:18:28.163705975,E4_Acc,2024-06-24 09:42:59.805809975,8.0,63.0,10.0
1904-01-01 00:18:28.194965988,E4_Acc,2024-06-24 09:42:59.837069988,8.0,63.0,10.0
1904-01-01 00:18:28.226215988,E4_Acc,2024-06-24 09:42:59.868319988,8.0,63.0,10.0
1904-01-01 00:18:28.257465988,E4_Acc,2024-06-24 09:42:59.899569988,8.0,63.0,10.0
1904-01-01 00:18:28.288715988,E4_Acc,2024-06-24 09:42:59.930819988,8.0,63.0,10.0
1904-01-01 00:18:28.319965988,E4_Acc,2024-06-24 09:42:59.962069988,8.0,63.0,10.0
1904-01-01 00:18:28.351215988,E4_Acc,2024-06-24 09:42:59.993319988,8.0,63.0,10.0
1904-01-01 00:18:28.382465988,E4_Acc,2024-06-24 09:43:00.024569988,8.0,63.0,10.0
1904-01-01 00:18:28.413726002,E4_Acc,2024-06-24 09:43:00.055830002,8.0,63.0,10.0
1904-01-01 00:18:28.444976002,E4_Acc,2024-06-24 09:43:00.087080002,8.0,63.0,10.0
1904-01-01 00:18:28.476226002,E4_Acc,2024-06-24 09:43:00.118330002,8.0,63.0,10.0
1904-01-01 00:18:28.507476002,E4_Acc,2024-06-24 09:43:00.149580002,8.0,63.0,10.0
1904-01-01 00:18:28.538726002,E4_Acc,2024-06-24 09:43:00.180830002,8.0,63.0,11.0
1904-01-01 00:18:28.569976002,E4_Acc,2024-06-24 09:43:00.212080002,8.0,63.0,10.0
1904-01-01 00:18:28.601226002,E4_Acc,2024-06-24 09:43:00.243330002,8.0,63.0,10.0
1904-01-01 00:18:28.632486015,E4_Acc,2024-06-24 09:43:00.274590015,8.0,63.0,10.0
1904-01-01 00:18:28.663736015,E4_Acc,2024-06-24 09:43:00.305840015,8.0,63.0,10.0
1904-01-01 00:18:28.694986015,E4_Acc,2024-06-24 09:43:00.337090015,8.0,63.0,10.0
1904-01-01 00:18:28.726236015,E4_Acc,2024-06-24 09:43:00.368340015,8.0,63.0,10.0
1904-01-01 00:18:28.757486015,E4_Acc,2024-06-24 09:43:00.399590015,8.0,63.0,10.0
1904-01-01 00:18:28.788736015,E4_Acc,2024-06-24 09:43:00.430840015,8.0,63.0,11.0
1904-01-01 00:18:28.819986015,E4_Acc,2024-06-24 09:43:00.462090015,8.0,63.0,11.0
1904-01-01 00:18:28.851246029,E4_Acc,2024-06-24 09:43:00.493350029,8.0,63.0,11.0
1904-01-01 00:18:28.882496029,E4_Acc,2024-06-24 09:43:00.524600029,8.0,63.0,11.0
1904-01-01 00:18:28.913746029,E4_Acc,2024-06-24 09:43:00.555850029,8.0,63.0,11.0
1904-01-01 00:18:28.944996029,E4_Acc,2024-06-24 09:43:00.587100029,8.0,63.0,11.0
1904-01-01 00:18:28.976246029,E4_Acc,2024-06-24 09:43:00.618350029,8.0,63.0,10.0
1904-01-01 00:18:29.007496029,E4_Acc,2024-06-24 09:43:00.649600029,8.0,63.0,10.0
1904-01-01 00:18:29.038746029,E4_Acc,2024-06-24 09:43:00.680850029,8.0,63.0,11.0
1904-01-01 00:18:29.070006043,E4_Acc,2024-06-24 09:43:00.712110043,8.0,63.0,11.0
1904-01-01 00:18:29.101256043,E4_Acc,2024-06-24 09:43:00.743360043,8.0,63.0,11.0
1904-01-01 00:18:29.132506043,E4_Acc,2024-06-24 09:43:00.774610043,8.0,63.0,11.0
1904-01-01 00:18:29.163756043,E4_Acc,2024-06-24 09:43:00.805860043,8.0,63.0,11.0
1904-01-01 00:18:29.195006043,E4_Acc,2024-06-24 09:43:00.837110043,8.0,63.0,11.0
1904-01-01 00:18:29.226256043,E4_Acc,2024-06-24 09:43:00.868360043,8.0,63.0,11.0
1904-01-01 00:18:29.257516056,E4_Acc,2024-06-24 09:43:00.899620056,8.0,63.0,11.0
1904-01-01 00:18:29.288766056,E4_Acc,2024-06-24 09:43:00.930870056,8.0,63.0,11.0
1904-01-01 00:18:29.320016056,E4_Acc,2024-06-24 09:43:00.962120056,8.0,63.0,11.0
1904-01-01 00:18:29.351266056,E4_Acc,2024-06-24 09:43:00.993370056,8.0,63.0,11.0
1904-01-01 00:18:29.382516056,E4_Acc,2024-06-24 09:43:01.024620056,8.0,63.0,10.0
1904-01-01 00:18:29.413766056,E4_Acc,2024-06-24 09:43:01.055870056,8.0,63.0,10.0
1904-01-01 00:18:29.445016056,E4_Acc,2024-06-24 09:43:01.087120056,8.0,63.0,10.0
1904-01-01 00:18:29.476276070,E4_Acc,2024-06-24 09:43:01.118380070,8.0,63.0,11.0
1904-01-01 00:18:29.507526070,E4_Acc,2024-06-24 09:43:01.149630070,8.0,63.0,11.0
1904-01-01 00:18:29.538776070,E4_Acc,2024-06-24 09:43:01.180880070,8.0,63.0,10.0
1904-01-01 00:18:29.570026070,E4_Acc,2024-06-24 09:43:01.212130070,8.0,63.0,10.0
1904-01-01 00:18:29.601276070,E4_Acc,2024-06-24 09:43:01.243380070,8.0,63.0,10.0
1904-01-01 00:18:29.632526070,E4_Acc,2024-06-24 09:43:01.274630070,8.0,63.0,10.0
1904-01-01 00:18:29.663776070,E4_Acc,2024-06-24 09:43:01.305880070,8.0,63.0,10.0
1904-01-01 00:18:29.695036083,E4_Acc,2024-06-24 09:43:01.337140083,8.0,63.0,10.0
1904-01-01 00:18:29.726286083,E4_Acc,2024-06-24 09:43:01.368390083,8.0,63.0,10.0
1904-01-01 00:18:29.757536083,E4_Acc,2024-06-24 09:43:01.399640083,8.0,63.0,10.0
1904-01-01 00:18:29.788786083,E4_Acc,2024-06-24 09:43:01.430890083,8.0,63.0,10.0
1904-01-01 00:18:29.820036083,E4_Acc,2024-06-24 09:43:01.462140083,8.0,63.0,10.0
1904-01-01 00:18:29.851286083,E4_Acc,2024-06-24 09:43:01.493390083,8.0,63.0,11.0
1904-01-01 00:18:29.882536083,E4_Acc,2024-06-24 09:43:01.524640083,8.0,63.0,10.0
1904-01-01 00:18:29.913796097,E4_Acc,2024-06-24 09:43:01.555900097,8.0,63.0,10.0
1904-01-01 00:18:29.945046097,E4_Acc,2024-06-24 09:43:01.587150097,8.0,63.0,10.0
1904-01-01 00:18:29.976296097,E4_Acc,2024-06-24 09:43:01.618400097,8.0,63.0,10.0
1904-01-01 00:18:30.007546097,E4_Acc,2024-06-24 09:43:01.649650097,8.0,63.0,10.0
1904-01-01 00:18:30.038796097,E4_Acc,2024-06-24 09:43:01.680900097,8.0,63.0,10.0
1904-01-01 00:18:30.070046097,E4_Acc,2024-06-24 09:43:01.712150097,8.0,63.0,10.0
1904-01-01 00:18:30.101296097,E4_Acc,2024-06-24 09:43:01.743400097,8.0,63.0,10.0
1904-01-01 00:18:30.132556110,E4_Acc,2024-06-24 09:43:01.774660110,8.0,63.0,10.0
1904-01-01 00:18:30.163806110,E4_Acc,2024-06-24 09:43:01.805910110,7.0,63.0,10.0
1904-01-01 00:18:30.195056110,E4_Acc,2024-06-24 09:43:01.837160110,8.0,63.0,10.0
1904-01-01 00:18:30.226306110,E4_Acc,2024-06-24 09:43:01.868410110,7.0,63.0,10.0
1904-01-01 00:18:30.257556110,E4_Acc,2024-06-24 09:43:01.899660110,8.0,63.0,9.0
1904-01-01 00:18:30.288806110,E4_Acc,2024-06-24 09:43:01.930910110,8.0,63.0,10.0
1904-01-01 00:18:30.320056110,E4_Acc,2024-06-24 09:43:01.962160110,8.0,63.0,10.0
1904-01-01 00:18:30.351315886,E4_Acc,2024-06-24 09:43:01.993419886,8.0,63.0,10.0
1904-01-01 00:18:30.382565886,E4_Acc,2024-06-24 09:43:02.024669886,8.0,63.0,10.0
1904-01-01 00:18:30.413815886,E4_Acc,2024-06-24 09:43:02.055919886,8.0,63.0,9.0
1904-01-01 00:18:30.445065886,E4_Acc,2024-06-24 09:43:02.087169886,8.0,63.0,9.0
1904-01-01 00:18:30.476315886,E4_Acc,2024-06-24 09:43:02.118419886,7.0,63.0,9.0
1904-01-01 00:18:30.507565886,E4_Acc,2024-06-24 09:43:02.149669886,7.0,63.0,10.0
1904-01-01 00:18:30.538815886,E4_Acc,2024-06-24 09:43:02.180919886,7.0,63.0,9.0
1904-01-01 00:18:30.570075899,E4_Acc,2024-06-24 09:43:02.212179899,8.0,63.0,10.0
1904-01-01 00:18:30.601325899,E4_Acc,2024-06-24 09:43:02.243429899,8.0,63.0,10.0
1904-01-01 00:18:30.632575899,E4_Acc,2024-06-24 09:43:02.274679899,8.0,63.0,10.0
1904-01-01 00:18:30.663825899,E4_Acc,2024-06-24 09:43:02.305929899,7.0,63.0,10.0
1904-01-01 00:18:30.695075899,E4_Acc,2024-06-24 09:43:02.337179899,7.0,63.0,9.0
1904-01-01 00:18:30.726325899,E4_Acc,2024-06-24 09:43:02.368429899,8.0,64.0,9.0
1904-01-01 00:18:30.757575899,E4_Acc,2024-06-24 09:43:02.399679899,7.0,64.0,9.0
1904-01-01 00:18:30.788835913,E4_Acc,2024-06-24 09:43:02.430939913,8.0,63.0,9.0
1904-01-01 00:18:30.820085913,E4_Acc,2024-06-24 09:43:02.462189913,7.0,63.0,9.0
1904-01-01 00:18:30.851335913,E4_Acc,2024-06-24 09:43:02.493439913,7.0,63.0,9.0
1904-01-01 00:18:30.882585913,E4_Acc,2024-06-24 09:43:02.524689913,7.0,63.0,9.0
1904-01-01 00:18:30.913835913,E4_Acc,2024-06-24 09:43:02.555939913,7.0,63.0,9.0
1904-01-01 00:18:30.945085913,E4_Acc,2024-06-24 09:43:02.587189913,7.0,63.0,9.0
1904-01-01 00:18:30.976335913,E4_Acc,2024-06-24 09:43:02.618439913,7.0,63.0,9.0
1904-01-01 00:18:31.007595926,E4_Acc,2024-06-24 09:43:02.649699926,7.0,63.0,9.0
1904-01-01 00:18:31.038845926,E4_Acc,2024-06-24 09:43:02.680949926,7.0,64.0,9.0
1904-01-01 00:18:31.070095926,E4_Acc,2024-06-24 09:43:02.712199926,7.0,64.0,9.0
1904-01-01 00:18:31.101345926,E4_Acc,2024-06-24 09:43:02.743449926,8.0,64.0,9.0
1904-01-01 00:18:31.132595926,E4_Acc,2024-06-24 09:43:02.774699926,8.0,64.0,9.0
1904-01-01 00:18:31.163845926,E4_Acc,2024-06-24 09:43:02.805949926,7.0,63.0,9.0
1904-01-01 00:18:31.195095926,E4_Acc,2024-06-24 09:43:02.837199926,7.0,64.0,9.0
1904-01-01 00:18:31.226355940,E4_Acc,2024-06-24 09:43:02.868459940,7.0,64.0,9.0
1904-01-01 00:18:31.257605940,E4_Acc,2024-06-24 09:43:02.899709940,7.0,63.0,9.0
1904-01-01 00:18:31.288855940,E4_Acc,2024-06-24 09:43:02.930959940,8.0,64.0,8.0
1904-01-01 00:18:31.320105940,E4_Acc,2024-06-24 09:43:02.962209940,8.0,64.0,8.0
1904-01-01 00:18:31.351355940,E4_Acc,2024-06-24 09:43:02.993459940,8.0,63.0,8.0
1904-01-01 00:18:31.382605940,E4_Acc,2024-06-24 09:43:03.024709940,8.0,63.0,8.0
1904-01-01 00:18:31.413855940,E4_Acc,2024-06-24 09:43:03.055959940,8.0,63.0,8.0
1904-01-01 00:18:31.445115954,E4_Acc,2024-06-24 09:43:03.087219954,8.0,63.0,8.0
1904-01-01 00:18:31.476365954,E4_Acc,2024-06-24 09:43:03.118469954,8.0,63.0,8.0
1904-01-01 00:18:31.507615954,E4_Acc,2024-06-24 09:43:03.149719954,8.0,63.0,9.0
1904-01-01 00:18:31.538865954,E4_Acc,2024-06-24 09:43:03.180969954,8.0,63.0,8.0
1904-01-01 00:18:31.570115954,E4_Acc,2024-06-24 09:43:03.212219954,8.0,63.0,8.0
1904-01-01 00:18:31.601365954,E4_Acc,2024-06-24 09:43:03.243469954,8.0,63.0,8.0
1904-01-01 00:18:31.632615954,E4_Acc,2024-06-24 09:43:03.274719954,8.0,63.0,8.0
1904-01-01 00:18:31.663875967,E4_Acc,2024-06-24 09:43:03.305979967,8.0,63.0,8.0
1904-01-01 00:18:31.695125967,E4_Acc,2024-06-24 09:43:03.337229967,8.0,63.0,9.0
1904-01-01 00:18:31.726375967,E4_Acc,2024-06-24 09:43:03.368479967,8.0,63.0,9.0
1904-01-01 00:18:31.757625967,E4_Acc,2024-06-24 09:43:03.399729967,8.0,63.0,9.0
1904-01-01 00:18:31.788875967,E4_Acc,2024-06-24 09:43:03.430979967,8.0,64.0,9.0
1904-01-01 00:18:31.820125967,E4_Acc,2024-06-24 09:43:03.462229967,8.0,63.0,9.0
1904-01-01 00:18:31.851375967,E4_Acc,2024-06-24 09:43:03.493479967,8.0,63.0,9.0
1904-01-01 00:18:31.882635980,E4_Acc,2024-06-24 09:43:03.524739980,8.0,63.0,9.0
1904-01-01 00:18:31.913885981,E4_Acc,2024-06-24 09:43:03.555989981,8.0,64.0,9.0
1904-01-01 00:18:31.945135981,E4_Acc,2024-06-24 09:43:03.587239981,8.0,64.0,9.0
1904-01-01 00:18:31.976385981,E4_Acc,2024-06-24 09:43:03.618489981,8.0,63.0,9.0
1904-01-01 00:18:32.007635981,E4_Acc,2024-06-24 09:43:03.649739981,8.0,63.0,9.0
1904-01-01 00:18:32.038885981,E4_Acc,2024-06-24 09:43:03.680989981,8.0,63.0,9.0
1904-01-01 00:18:32.070145994,E4_Acc,2024-06-24 09:43:03.712249994,8.0,63.0,9.0
1904-01-01 00:18:32.101395994,E4_Acc,2024-06-24 09:43:03.743499994,8.0,63.0,9.0
1904-01-01 00:18:32.132645994,E4_Acc,2024-06-24 09:43:03.774749994,8.0,63.0,9.0
1904-01-01 00:18:32.163895994,E4_Acc,2024-06-24 09:43:03.805999994,8.0,63.0,9.0
1904-01-01 00:18:32.195145994,E4_Acc,2024-06-24 09:43:03.837249994,8.0,63.0,9.0
1904-01-01 00:18:32.226395994,E4_Acc,2024-06-24 09:43:03.868499994,8.0,63.0,9.0
1904-01-01 00:18:32.257645994,E4_Acc,2024-06-24 09:43:03.899749994,8.0,63.0,9.0
1904-01-01 00:18:32.288906008,E4_Acc,2024-06-24 09:43:03.931010008,8.0,63.0,9.0
1904-01-01 00:18:32.320156008,E4_Acc,2024-06-24 09:43:03.962260008,8.0,63.0,9.0
1904-01-01 00:18:32.351406008,E4_Acc,2024-06-24 09:43:03.993510008,8.0,63.0,9.0
1904-01-01 00:18:32.382656008,E4_Acc,2024-06-24 09:43:04.024760008,8.0,63.0,9.0
1904-01-01 00:18:32.413906008,E4_Acc,2024-06-24 09:43:04.056010008,8.0,63.0,9.0
1904-01-01 00:18:32.445156008,E4_Acc,2024-06-24 09:43:04.087260008,8.0,63.0,9.0
1904-01-01 00:18:32.476406008,E4_Acc,2024-06-24 09:43:04.118510008,8.0,63.0,10.0
1904-01-01 00:18:32.507666021,E4_Acc,2024-06-24 09:43:04.149770021,8.0,63.0,9.0
1904-01-01 00:18:32.538916021,E4_Acc,2024-06-24 09:43:04.181020021,8.0,63.0,10.0
1904-01-01 00:18:32.570166021,E4_Acc,2024-06-24 09:43:04.212270021,8.0,63.0,10.0
1904-01-01 00:18:32.601416021,E4_Acc,2024-06-24 09:43:04.243520021,8.0,63.0,9.0
1904-01-01 00:18:32.632666021,E4_Acc,2024-06-24 09:43:04.274770021,8.0,63.0,9.0
1904-01-01 00:18:32.663916021,E4_Acc,2024-06-24 09:43:04.306020021,8.0,63.0,9.0
1904-01-01 00:18:32.695166021,E4_Acc,2024-06-24 09:43:04.337270021,8.0,63.0,9.0
1904-01-01 00:18:32.726426035,E4_Acc,2024-06-24 09:43:04.368530035,8.0,63.0,9.0
1904-01-01 00:18:32.757676035,E4_Acc,2024-06-24 09:43:04.399780035,8.0,63.0,9.0
1904-01-01 00:18:32.788926035,E4_Acc,2024-06-24 09:43:04.431030035,8.0,63.0,9.0
1904-01-01 00:18:32.820176035,E4_Acc,2024-06-24 09:43:04.462280035,8.0,63.0,9.0
1904-01-01 00:18:32.851426035,E4_Acc,2024-06-24 09:43:04.493530035,8.0,63.0,10.0
1904-01-01 00:18:32.882676035,E4_Acc,2024-06-24 09:43:04.524780035,8.0,63.0,9.0
1904-01-01 00:18:32.913926035,E4_Acc,2024-06-24 09:43:04.556030035,8.0,63.0,10.0
1904-01-01 00:18:32.945186049,E4_Acc,2024-06-24 09:43:04.587290049,8.0,63.0,10.0
1904-01-01 00:18:32.976436049,E4_Acc,2024-06-24 09:43:04.618540049,8.0,63.0,10.0
1904-01-01 00:18:33.007686049,E4_Acc,2024-06-24 09:43:04.649790049,8.0,63.0,9.0
1904-01-01 00:18:33.038936049,E4_Acc,2024-06-24 09:43:04.681040049,8.0,63.0,10.0
1904-01-01 00:18:33.070186049,E4_Acc,2024-06-24 09:43:04.712290049,8.0,63.0,10.0
1904-01-01 00:18:33.101436049,E4_Acc,2024-06-24 09:43:04.743540049,8.0,63.0,10.0
1904-01-01 00:18:33.132686049,E4_Acc,2024-06-24 09:43:04.774790049,8.0,63.0,10.0
1904-01-01 00:18:33.163946062,E4_Acc,2024-06-24 09:43:04.806050062,8.0,63.0,10.0
1904-01-01 00:18:33.195196062,E4_Acc,2024-06-24 09:43:04.837300062,8.0,63.0,10.0
1904-01-01 00:18:33.226446062,E4_Acc,2024-06-24 09:43:04.868550062,8.0,63.0,10.0
1904-01-01 00:18:33.257696062,E4_Acc,2024-06-24 09:43:04.899800062,8.0,63.0,10.0
1904-01-01 00:18:33.288946062,E4_Acc,2024-06-24 09:43:04.931050062,8.0,63.0,10.0
1904-01-01 00:18:33.320196062,E4_Acc,2024-06-24 09:43:04.962300062,8.0,63.0,9.0
1904-01-01 00:18:33.351446062,E4_Acc,2024-06-24 09:43:04.993550062,8.0,63.0,10.0
1904-01-01 00:18:33.382706076,E4_Acc,2024-06-24 09:43:05.024810076,8.0,63.0,10.0
1904-01-01 00:18:33.413956076,E4_Acc,2024-06-24 09:43:05.056060076,8.0,63.0,10.0
1904-01-01 00:18:33.445206076,E4_Acc,2024-06-24 09:43:05.087310076,8.0,63.0,10.0
1904-01-01 00:18:33.476456076,E4_Acc,2024-06-24 09:43:05.118560076,8.0,63.0,11.0
1904-01-01 00:18:33.507706076,E4_Acc,2024-06-24 09:43:05.149810076,8.0,63.0,11.0
1904-01-01 00:18:33.538956076,E4_Acc,2024-06-24 09:43:05.181060076,8.0,63.0,11.0
1904-01-01 00:18:33.570206076,E4_Acc,2024-06-24 09:43:05.212310076,8.0,63.0,11.0
1904-01-01 00:18:33.601466089,E4_Acc,2024-06-24 09:43:05.243570089,8.0,63.0,11.0
1904-01-01 00:18:33.632716089,E4_Acc,2024-06-24 09:43:05.274820089,8.0,63.0,11.0
1904-01-01 00:18:33.663966089,E4_Acc,2024-06-24 09:43:05.306070089,8.0,63.0,10.0
1904-01-01 00:18:33.695216089,E4_Acc,2024-06-24 09:43:05.337320089,8.0,63.0,10.0
1904-01-01 00:18:33.726466089,E4_Acc,2024-06-24 09:43:05.368570089,8.0,63.0,10.0
1904-01-01 00:18:33.757716089,E4_Acc,2024-06-24 09:43:05.399820089,8.0,63.0,10.0
1904-01-01 00:18:33.788966089,E4_Acc,2024-06-24 09:43:05.431070089,8.0,63.0,10.0
1904-01-01 00:18:33.820226103,E4_Acc,2024-06-24 09:43:05.462330103,8.0,63.0,10.0
1904-01-01 00:18:33.851476103,E4_Acc,2024-06-24 09:43:05.493580103,8.0,63.0,10.0
1904-01-01 00:18:33.882726103,E4_Acc,2024-06-24 09:43:05.524830103,8.0,63.0,10.0
1904-01-01 00:18:33.913976103,E4_Acc,2024-06-24 09:43:05.556080103,8.0,63.0,10.0
1904-01-01 00:18:33.945226103,E4_Acc,2024-06-24 09:43:05.587330103,8.0,63.0,10.0
1904-01-01 00:18:33.976476103,E4_Acc,2024-06-24 09:43:05.618580103,8.0,63.0,10.0
1904-01-01 00:18:34.007726103,E4_Acc,2024-06-24 09:43:05.649830103,8.0,63.0,11.0
1904-01-01 00:18:34.038986117,E4_Acc,2024-06-24 09:43:05.681090117,8.0,63.0,11.0
1904-01-01 00:18:34.070236117,E4_Acc,2024-06-24 09:43:05.712340117,8.0,63.0,11.0
1904-01-01 00:18:34.101486117,E4_Acc,2024-06-24 09:43:05.743590117,8.0,63.0,11.0
1904-01-01 00:18:34.132736117,E4_Acc,2024-06-24 09:43:05.774840117,8.0,63.0,10.0
1904-01-01 00:18:34.163986117,E4_Acc,2024-06-24 09:43:05.806090117,8.0,63.0,10.0
1904-01-01 00:18:34.195236117,E4_Acc,2024-06-24 09:43:05.837340117,8.0,63.0,10.0
1904-01-01 00:18:34.226495892,E4_Acc,2024-06-24 09:43:05.868599892,8.0,63.0,10.0
1904-01-01 00:18:34.257745892,E4_Acc,2024-06-24 09:43:05.899849892,8.0,63.0,10.0
1904-01-01 00:18:34.288995892,E4_Acc,2024-06-24 09:43:05.931099892,8.0,63.0,10.0
1904-01-01 00:18:34.320245892,E4_Acc,2024-06-24 09:43:05.962349892,8.0,63.0,10.0
1904-01-01 00:18:34.351495892,E4_Acc,2024-06-24 09:43:05.993599892,8.0,63.0,10.0
1904-01-01 00:18:34.382745892,E4_Acc,2024-06-24 09:43:06.024849892,8.0,63.0,11.0
1904-01-01 00:18:34.413995892,E4_Acc,2024-06-24 09:43:06.056099892,8.0,63.0,10.0
1904-01-01 00:18:34.445255905,E4_Acc,2024-06-24 09:43:06.087359905,8.0,63.0,10.0
1904-01-01 00:18:34.476505905,E4_Acc,2024-06-24 09:43:06.118609905,8.0,63.0,10.0
1904-01-01 00:18:34.507755905,E4_Acc,2024-06-24 09:43:06.149859905,8.0,63.0,10.0
1904-01-01 00:18:34.539005905,E4_Acc,2024-06-24 09:43:06.181109905,8.0,63.0,10.0
1904-01-01 00:18:34.570255905,E4_Acc,2024-06-24 09:43:06.212359905,8.0,63.0,10.0
1904-01-01 00:18:34.601505905,E4_Acc,2024-06-24 09:43:06.243609905,8.0,63.0,10.0
1904-01-01 00:18:34.632755905,E4_Acc,2024-06-24 09:43:06.274859905,8.0,63.0,10.0
1904-01-01 00:18:34.664015919,E4_Acc,2024-06-24 09:43:06.306119919,8.0,63.0,10.0
1904-01-01 00:18:34.695265919,E4_Acc,2024-06-24 09:43:06.337369919,8.0,63.0,10.0
1904-01-01 00:18:34.726515919,E4_Acc,2024-06-24 09:43:06.368619919,8.0,63.0,10.0
1904-01-01 00:18:34.757765919,E4_Acc,2024-06-24 09:43:06.399869919,8.0,63.0,10.0
1904-01-01 00:18:34.789015919,E4_Acc,2024-06-24 09:43:06.431119919,8.0,63.0,10.0
1904-01-01 00:18:34.820265919,E4_Acc,2024-06-24 09:43:06.462369919,8.0,63.0,10.0
1904-01-01 00:18:34.851515919,E4_Acc,2024-06-24 09:43:06.493619919,8.0,63.0,10.0
1904-01-01 00:18:34.882775932,E4_Acc,2024-06-24 09:43:06.524879932,8.0,63.0,10.0
1904-01-01 00:18:34.914025932,E4_Acc,2024-06-24 09:43:06.556129932,8.0,63.0,10.0
1904-01-01 00:18:34.945275932,E4_Acc,2024-06-24 09:43:06.587379932,8.0,63.0,10.0
1904-01-01 00:18:34.976525932,E4_Acc,2024-06-24 09:43:06.618629932,8.0,63.0,10.0
1904-01-01 00:18:35.007775932,E4_Acc,2024-06-24 09:43:06.649879932,8.0,63.0,10.0
1904-01-01 00:18:35.039025932,E4_Acc,2024-06-24 09:43:06.681129932,8.0,63.0,10.0
1904-01-01 00:18:35.070275932,E4_Acc,2024-06-24 09:43:06.712379932,8.0,63.0,10.0
1904-01-01 00:18:35.101535946,E4_Acc,2024-06-24 09:43:06.743639946,8.0,63.0,10.0
1904-01-01 00:18:35.132785946,E4_Acc,2024-06-24 09:43:06.774889946,8.0,63.0,10.0
1904-01-01 00:18:35.164035946,E4_Acc,2024-06-24 09:43:06.806139946,8.0,63.0,10.0
1904-01-01 00:18:35.195285946,E4_Acc,2024-06-24 09:43:06.837389946,8.0,63.0,10.0
1904-01-01 00:18:35.226535946,E4_Acc,2024-06-24 09:43:06.868639946,8.0,63.0,10.0
1904-01-01 00:18:35.257785946,E4_Acc,2024-06-24 09:43:06.899889946,8.0,63.0,10.0
1904-01-01 00:18:35.289035946,E4_Acc,2024-06-24 09:43:06.931139946,8.0,63.0,10.0
1904-01-01 00:18:35.320295960,E4_Acc,2024-06-24 09:43:06.962399960,8.0,63.0,10.0
1904-01-01 00:18:35.351545960,E4_Acc,2024-06-24 09:43:06.993649960,8.0,63.0,10.0
1904-01-01 00:18:35.382795960,E4_Acc,2024-06-24 09:43:07.024899960,8.0,63.0,10.0
1904-01-01 00:18:35.414045960,E4_Acc,2024-06-24 09:43:07.056149960,8.0,63.0,10.0
1904-01-01 00:18:35.445295960,E4_Acc,2024-06-24 09:43:07.087399960,8.0,63.0,10.0
1904-01-01 00:18:35.476545960,E4_Acc,2024-06-24 09:43:07.118649960,8.0,63.0,10.0
1904-01-01 00:18:35.507795960,E4_Acc,2024-06-24 09:43:07.149899960,8.0,63.0,10.0
1904-01-01 00:18:35.539055973,E4_Acc,2024-06-24 09:43:07.181159973,8.0,63.0,9.0
1904-01-01 00:18:35.570305973,E4_Acc,2024-06-24 09:43:07.212409973,8.0,63.0,10.0
1904-01-01 00:18:35.601555973,E4_Acc,2024-06-24 09:43:07.243659973,8.0,63.0,10.0
1904-01-01 00:18:35.632805973,E4_Acc,2024-06-24 09:43:07.274909973,8.0,63.0,10.0
1904-01-01 00:18:35.664055973,E4_Acc,2024-06-24 09:43:07.306159973,8.0,63.0,10.0
1904-01-01 00:18:35.695305973,E4_Acc,2024-06-24 09:43:07.337409973,8.0,63.0,10.0
1904-01-01 00:18:35.726555973,E4_Acc,2024-06-24 09:43:07.368659973,8.0,63.0,10.0
1904-01-01 00:18:35.757815987,E4_Acc,2024-06-24 09:43:07.399919987,8.0,63.0,10.0
1904-01-01 00:18:35.789065987,E4_Acc,2024-06-24 09:43:07.431169987,8.0,63.0,9.0
1904-01-01 00:18:35.820315987,E4_Acc,2024-06-24 09:43:07.462419987,8.0,63.0,9.0
1904-01-01 00:18:35.851565987,E4_Acc,2024-06-24 09:43:07.493669987,8.0,63.0,10.0
1904-01-01 00:18:35.882815987,E4_Acc,2024-06-24 09:43:07.524919987,8.0,63.0,10.0
1904-01-01 00:18:35.914065987,E4_Acc,2024-06-24 09:43:07.556169987,8.0,63.0,9.0
1904-01-01 00:18:35.945315987,E4_Acc,2024-06-24 09:43:07.587419987,8.0,63.0,10.0
1904-01-01 00:18:35.976576000,E4_Acc,2024-06-24 09:43:07.618680000,8.0,63.0,10.0
1904-01-01 00:18:36.007826000,E4_Acc,2024-06-24 09:43:07.649930000,8.0,63.0,10.0
1904-01-01 00:18:36.039076000,E4_Acc,2024-06-24 09:43:07.681180000,8.0,63.0,10.0
1904-01-01 00:18:36.070326000,E4_Acc,2024-06-24 09:43:07.712430000,8.0,63.0,10.0
1904-01-01 00:18:36.101576000,E4_Acc,2024-06-24 09:43:07.743680000,8.0,63.0,10.0
1904-01-01 00:18:36.132826000,E4_Acc,2024-06-24 09:43:07.774930000,8.0,63.0,10.0
1904-01-01 00:18:36.164076000,E4_Acc,2024-06-24 09:43:07.806180000,8.0,63.0,10.0
1904-01-01 00:18:36.195336014,E4_Acc,2024-06-24 09:43:07.837440014,8.0,63.0,10.0
1904-01-01 00:18:36.226586014,E4_Acc,2024-06-24 09:43:07.868690014,8.0,63.0,10.0
1904-01-01 00:18:36.257836014,E4_Acc,2024-06-24 09:43:07.899940014,8.0,63.0,10.0
1904-01-01 00:18:36.289086014,E4_Acc,2024-06-24 09:43:07.931190014,8.0,63.0,10.0
1904-01-01 00:18:36.320336014,E4_Acc,2024-06-24 09:43:07.962440014,8.0,63.0,10.0
1904-01-01 00:18:36.351586014,E4_Acc,2024-06-24 09:43:07.993690014,8.0,63.0,10.0
1904-01-01 00:18:36.382836014,E4_Acc,2024-06-24 09:43:08.024940014,8.0,63.0,10.0
1904-01-01 00:18:36.414096027,E4_Acc,2024-06-24 09:43:08.056200027,8.0,63.0,10.0
1904-01-01 00:18:36.445346027,E4_Acc,2024-06-24 09:43:08.087450027,8.0,63.0,10.0
1904-01-01 00:18:36.476596027,E4_Acc,2024-06-24 09:43:08.118700027,8.0,63.0,10.0
1904-01-01 00:18:36.507846027,E4_Acc,2024-06-24 09:43:08.149950027,8.0,63.0,10.0
1904-01-01 00:18:36.539096027,E4_Acc,2024-06-24 09:43:08.181200027,8.0,63.0,10.0
1904-01-01 00:18:36.570346027,E4_Acc,2024-06-24 09:43:08.212450027,8.0,63.0,9.0
1904-01-01 00:18:36.601606041,E4_Acc,2024-06-24 09:43:08.243710041,8.0,63.0,9.0
1904-01-01 00:18:36.632856041,E4_Acc,2024-06-24 09:43:08.274960041,8.0,63.0,9.0
1904-01-01 00:18:36.664106041,E4_Acc,2024-06-24 09:43:08.306210041,8.0,63.0,9.0
1904-01-01 00:18:36.695356041,E4_Acc,2024-06-24 09:43:08.337460041,8.0,63.0,9.0
1904-01-01 00:18:36.726606041,E4_Acc,2024-06-24 09:43:08.368710041,8.0,64.0,9.0
1904-01-01 00:18:36.757856041,E4_Acc,2024-06-24 09:43:08.399960041,8.0,63.0,9.0
1904-01-01 00:18:36.789106041,E4_Acc,2024-06-24 09:43:08.431210041,8.0,63.0,9.0
1904-01-01 00:18:36.820366055,E4_Acc,2024-06-24 09:43:08.462470055,8.0,63.0,9.0
1904-01-01 00:18:36.851616055,E4_Acc,2024-06-24 09:43:08.493720055,8.0,63.0,9.0
1904-01-01 00:18:36.882866055,E4_Acc,2024-06-24 09:43:08.524970055,8.0,63.0,9.0
1904-01-01 00:18:36.914116055,E4_Acc,2024-06-24 09:43:08.556220055,8.0,63.0,9.0
1904-01-01 00:18:36.945366055,E4_Acc,2024-06-24 09:43:08.587470055,8.0,63.0,9.0
1904-01-01 00:18:36.976616055,E4_Acc,2024-06-24 09:43:08.618720055,8.0,63.0,10.0
1904-01-01 00:18:37.007866055,E4_Acc,2024-06-24 09:43:08.649970055,8.0,63.0,10.0
1904-01-01 00:18:37.039126068,E4_Acc,2024-06-24 09:43:08.681230068,8.0,63.0,10.0
1904-01-01 00:18:37.070376068,E4_Acc,2024-06-24 09:43:08.712480068,8.0,63.0,9.0
1904-01-01 00:18:37.101626068,E4_Acc,2024-06-24 09:43:08.743730068,8.0,63.0,9.0
1904-01-01 00:18:37.132876068,E4_Acc,2024-06-24 09:43:08.774980068,8.0,63.0,9.0
1904-01-01 00:18:37.164126068,E4_Acc,2024-06-24 09:43:08.806230068,8.0,63.0,9.0
1904-01-01 00:18:37.195376068,E4_Acc,2024-06-24 09:43:08.837480068,8.0,63.0,9.0
1904-01-01 00:18:37.226626068,E4_Acc,2024-06-24 09:43:08.868730068,8.0,63.0,10.0
1904-01-01 00:18:37.257886082,E4_Acc,2024-06-24 09:43:08.899990082,8.0,64.0,10.0
1904-01-01 00:18:37.289136082,E4_Acc,2024-06-24 09:43:08.931240082,8.0,63.0,10.0
1904-01-01 00:18:37.320386082,E4_Acc,2024-06-24 09:43:08.962490082,7.0,63.0,10.0
1904-01-01 00:18:37.351636082,E4_Acc,2024-06-24 09:43:08.993740082,8.0,63.0,10.0
1904-01-01 00:18:37.382886082,E4_Acc,2024-06-24 09:43:09.024990082,8.0,63.0,10.0
1904-01-01 00:18:37.414136082,E4_Acc,2024-06-24 09:43:09.056240082,8.0,63.0,10.0
1904-01-01 00:18:37.445386082,E4_Acc,2024-06-24 09:43:09.087490082,8.0,63.0,10.0
1904-01-01 00:18:37.476646095,E4_Acc,2024-06-24 09:43:09.118750095,8.0,63.0,10.0
1904-01-01 00:18:37.507896095,E4_Acc,2024-06-24 09:43:09.150000095,8.0,63.0,10.0
1904-01-01 00:18:37.539146095,E4_Acc,2024-06-24 09:43:09.181250095,8.0,63.0,10.0
1904-01-01 00:18:37.570396095,E4_Acc,2024-06-24 09:43:09.212500095,8.0,63.0,10.0
1904-01-01 00:18:37.601646095,E4_Acc,2024-06-24 09:43:09.243750095,8.0,63.0,10.0
1904-01-01 00:18:37.632896095,E4_Acc,2024-06-24 09:43:09.275000095,8.0,63.0,10.0
1904-01-01 00:18:37.664146095,E4_Acc,2024-06-24 09:43:09.306250095,8.0,63.0,10.0
1904-01-01 00:18:37.695406109,E4_Acc,2024-06-24 09:43:09.337510109,8.0,63.0,10.0
1904-01-01 00:18:37.726656109,E4_Acc,2024-06-24 09:43:09.368760109,8.0,63.0,10.0
1904-01-01 00:18:37.757906109,E4_Acc,2024-06-24 09:43:09.400010109,8.0,63.0,10.0
1904-01-01 00:18:37.789156109,E4_Acc,2024-06-24 09:43:09.431260109,8.0,63.0,10.0
1904-01-01 00:18:37.820406109,E4_Acc,2024-06-24 09:43:09.462510109,7.0,63.0,10.0
1904-01-01 00:18:37.851656109,E4_Acc,2024-06-24 09:43:09.493760109,7.0,63.0,10.0
1904-01-01 00:18:37.882906109,E4_Acc,2024-06-24 09:43:09.525010109,8.0,63.0,10.0
1904-01-01 00:18:37.914165884,E4_Acc,2024-06-24 09:43:09.556269884,8.0,64.0,10.0
1904-01-01 00:18:37.945415884,E4_Acc,2024-06-24 09:43:09.587519884,8.0,63.0,10.0
1904-01-01 00:18:37.976665884,E4_Acc,2024-06-24 09:43:09.618769884,8.0,63.0,10.0
1904-01-01 00:18:38.007915884,E4_Acc,2024-06-24 09:43:09.650019884,8.0,63.0,10.0
1904-01-01 00:18:38.039165884,E4_Acc,2024-06-24 09:43:09.681269884,8.0,63.0,10.0
1904-01-01 00:18:38.070415884,E4_Acc,2024-06-24 09:43:09.712519884,8.0,63.0,10.0
1904-01-01 00:18:38.101665884,E4_Acc,2024-06-24 09:43:09.743769884,8.0,63.0,10.0
1904-01-01 00:18:38.132925898,E4_Acc,2024-06-24 09:43:09.775029898,8.0,63.0,10.0
1904-01-01 00:18:38.164175898,E4_Acc,2024-06-24 09:43:09.806279898,8.0,63.0,10.0
1904-01-01 00:18:38.195425898,E4_Acc,2024-06-24 09:43:09.837529898,8.0,63.0,10.0
1904-01-01 00:18:38.226675898,E4_Acc,2024-06-24 09:43:09.868779898,8.0,63.0,10.0
1904-01-01 00:18:38.257925898,E4_Acc,2024-06-24 09:43:09.900029898,8.0,63.0,10.0
1904-01-01 00:18:38.289175898,E4_Acc,2024-06-24 09:43:09.931279898,8.0,63.0,10.0
1904-01-01 00:18:38.320425898,E4_Acc,2024-06-24 09:43:09.962529898,8.0,63.0,10.0
1904-01-01 00:18:38.351685911,E4_Acc,2024-06-24 09:43:09.993789911,8.0,63.0,10.0
1904-01-01 00:18:38.382935911,E4_Acc,2024-06-24 09:43:10.025039911,8.0,63.0,10.0
1904-01-01 00:18:38.414185911,E4_Acc,2024-06-24 09:43:10.056289911,8.0,63.0,10.0
1904-01-01 00:18:38.445435911,E4_Acc,2024-06-24 09:43:10.087539911,8.0,63.0,10.0
1904-01-01 00:18:38.476685911,E4_Acc,2024-06-24 09:43:10.118789911,8.0,63.0,10.0
1904-01-01 00:18:38.507935911,E4_Acc,2024-06-24 09:43:10.150039911,8.0,63.0,10.0
1904-01-01 00:18:38.539185911,E4_Acc,2024-06-24 09:43:10.181289911,8.0,63.0,10.0
1904-01-01 00:18:38.570445925,E4_Acc,2024-06-24 09:43:10.212549925,8.0,63.0,10.0
1904-01-01 00:18:38.601695925,E4_Acc,2024-06-24 09:43:10.243799925,8.0,63.0,10.0
1904-01-01 00:18:38.632945925,E4_Acc,2024-06-24 09:43:10.275049925,8.0,63.0,10.0
1904-01-01 00:18:38.664195925,E4_Acc,2024-06-24 09:43:10.306299925,8.0,63.0,10.0
1904-01-01 00:18:38.695445925,E4_Acc,2024-06-24 09:43:10.337549925,8.0,63.0,10.0
1904-01-01 00:18:38.726695925,E4_Acc,2024-06-24 09:43:10.368799925,8.0,63.0,10.0
1904-01-01 00:18:38.757945925,E4_Acc,2024-06-24 09:43:10.400049925,8.0,63.0,10.0
1904-01-01 00:18:38.789205938,E4_Acc,2024-06-24 09:43:10.431309938,9.0,63.0,10.0
1904-01-01 00:18:38.820455938,E4_Acc,2024-06-24 09:43:10.462559938,8.0,63.0,10.0
1904-01-01 00:18:38.851705938,E4_Acc,2024-06-24 09:43:10.493809938,8.0,63.0,10.0
1904-01-01 00:18:38.882955937,E4_Acc,2024-06-24 09:43:10.525059937,8.0,63.0,11.0
1904-01-01 00:18:38.914205938,E4_Acc,2024-06-24 09:43:10.556309938,8.0,63.0,11.0
1904-01-01 00:18:38.945455938,E4_Acc,2024-06-24 09:43:10.587559938,8.0,63.0,10.0
1904-01-01 00:18:38.976705938,E4_Acc,2024-06-24 09:43:10.618809938,8.0,63.0,10.0
1904-01-01 00:18:39.007965952,E4_Acc,2024-06-24 09:43:10.650069952,8.0,63.0,10.0
1904-01-01 00:18:39.039215952,E4_Acc,2024-06-24 09:43:10.681319952,9.0,63.0,10.0
1904-01-01 00:18:39.070465952,E4_Acc,2024-06-24 09:43:10.712569952,8.0,63.0,10.0
1904-01-01 00:18:39.101715952,E4_Acc,2024-06-24 09:43:10.743819952,9.0,63.0,10.0
1904-01-01 00:18:39.132965952,E4_Acc,2024-06-24 09:43:10.775069952,9.0,63.0,10.0
1904-01-01 00:18:39.164215952,E4_Acc,2024-06-24 09:43:10.806319952,8.0,63.0,10.0
1904-01-01 00:18:39.195475966,E4_Acc,2024-06-24 09:43:10.837579966,8.0,63.0,10.0
1904-01-01 00:18:39.226725966,E4_Acc,2024-06-24 09:43:10.868829966,8.0,63.0,11.0
1904-01-01 00:18:39.257975966,E4_Acc,2024-06-24 09:43:10.900079966,8.0,63.0,11.0
1904-01-01 00:18:39.289225966,E4_Acc,2024-06-24 09:43:10.931329966,8.0,63.0,11.0
1904-01-01 00:18:39.320475966,E4_Acc,2024-06-24 09:43:10.962579966,8.0,63.0,10.0
1904-01-01 00:18:39.351725966,E4_Acc,2024-06-24 09:43:10.993829966,8.0,63.0,10.0
1904-01-01 00:18:39.382975966,E4_Acc,2024-06-24 09:43:11.025079966,8.0,63.0,10.0
1904-01-01 00:18:39.414235979,E4_Acc,2024-06-24 09:43:11.056339979,8.0,63.0,10.0
1904-01-01 00:18:39.445485979,E4_Acc,2024-06-24 09:43:11.087589979,8.0,63.0,10.0
1904-01-01 00:18:39.476735979,E4_Acc,2024-06-24 09:43:11.118839979,8.0,63.0,10.0
1904-01-01 00:18:39.507985979,E4_Acc,2024-06-24 09:43:11.150089979,8.0,63.0,10.0
1904-01-01 00:18:39.539235979,E4_Acc,2024-06-24 09:43:11.181339979,8.0,63.0,10.0
1904-01-01 00:18:39.570485979,E4_Acc,2024-06-24 09:43:11.212589979,8.0,63.0,10.0
1904-01-01 00:18:39.601735979,E4_Acc,2024-06-24 09:43:11.243839979,8.0,63.0,10.0
1904-01-01 00:18:39.632995993,E4_Acc,2024-06-24 09:43:11.275099993,8.0,63.0,10.0
1904-01-01 00:18:39.664245993,E4_Acc,2024-06-24 09:43:11.306349993,8.0,63.0,10.0
1904-01-01 00:18:39.695495993,E4_Acc,2024-06-24 09:43:11.337599993,8.0,63.0,10.0
1904-01-01 00:18:39.726745993,E4_Acc,2024-06-24 09:43:11.368849993,8.0,63.0,10.0
1904-01-01 00:18:39.757995993,E4_Acc,2024-06-24 09:43:11.400099993,8.0,63.0,10.0
1904-01-01 00:18:39.789245993,E4_Acc,2024-06-24 09:43:11.431349993,8.0,63.0,10.0
1904-01-01 00:18:39.820495993,E4_Acc,2024-06-24 09:43:11.462599993,8.0,63.0,10.0
1904-01-01 00:18:39.851756006,E4_Acc,2024-06-24 09:43:11.493860006,8.0,63.0,10.0
1904-01-01 00:18:39.883006006,E4_Acc,2024-06-24 09:43:11.525110006,8.0,63.0,10.0
1904-01-01 00:18:39.914256006,E4_Acc,2024-06-24 09:43:11.556360006,8.0,63.0,10.0
1904-01-01 00:18:39.945506006,E4_Acc,2024-06-24 09:43:11.587610006,8.0,63.0,10.0
1904-01-01 00:18:39.976756006,E4_Acc,2024-06-24 09:43:11.618860006,8.0,63.0,10.0
1904-01-01 00:18:40.008006006,E4_Acc,2024-06-24 09:43:11.650110006,8.0,63.0,10.0
1904-01-01 00:18:40.039256006,E4_Acc,2024-06-24 09:43:11.681360006,8.0,63.0,10.0
1904-01-01 00:18:40.070516020,E4_Acc,2024-06-24 09:43:11.712620020,8.0,63.0,10.0
1904-01-01 00:18:40.101766020,E4_Acc,2024-06-24 09:43:11.743870020,8.0,63.0,10.0
1904-01-01 00:18:40.133016020,E4_Acc,2024-06-24 09:43:11.775120020,8.0,63.0,10.0
1904-01-01 00:18:40.164266020,E4_Acc,2024-06-24 09:43:11.806370020,8.0,63.0,10.0
1904-01-01 00:18:40.195516020,E4_Acc,2024-06-24 09:43:11.837620020,8.0,63.0,10.0
1904-01-01 00:18:40.226766020,E4_Acc,2024-06-24 09:43:11.868870020,8.0,63.0,10.0
1904-01-01 00:18:40.258016020,E4_Acc,2024-06-24 09:43:11.900120020,8.0,63.0,10.0
1904-01-01 00:18:40.289276033,E4_Acc,2024-06-24 09:43:11.931380033,8.0,63.0,10.0
1904-01-01 00:18:40.320526033,E4_Acc,2024-06-24 09:43:11.962630033,8.0,63.0,10.0
1904-01-01 00:18:40.351776033,E4_Acc,2024-06-24 09:43:11.993880033,8.0,63.0,10.0
1904-01-01 00:18:40.383026033,E4_Acc,2024-06-24 09:43:12.025130033,8.0,63.0,10.0
1904-01-01 00:18:40.414276033,E4_Acc,2024-06-24 09:43:12.056380033,8.0,63.0,9.0
1904-01-01 00:18:40.445526033,E4_Acc,2024-06-24 09:43:12.087630033,8.0,63.0,9.0
1904-01-01 00:18:40.476776033,E4_Acc,2024-06-24 09:43:12.118880033,8.0,63.0,9.0
1904-01-01 00:18:40.508036047,E4_Acc,2024-06-24 09:43:12.150140047,8.0,63.0,10.0
1904-01-01 00:18:40.539286047,E4_Acc,2024-06-24 09:43:12.181390047,8.0,63.0,10.0
1904-01-01 00:18:40.570536047,E4_Acc,2024-06-24 09:43:12.212640047,8.0,63.0,10.0
1904-01-01 00:18:40.601786047,E4_Acc,2024-06-24 09:43:12.243890047,8.0,63.0,9.0
1904-01-01 00:18:40.633036047,E4_Acc,2024-06-24 09:43:12.275140047,8.0,63.0,9.0
1904-01-01 00:18:40.664286047,E4_Acc,2024-06-24 09:43:12.306390047,8.0,63.0,9.0
1904-01-01 00:18:40.695536047,E4_Acc,2024-06-24 09:43:12.337640047,8.0,63.0,9.0
1904-01-01 00:18:40.726796061,E4_Acc,2024-06-24 09:43:12.368900061,8.0,63.0,9.0
1904-01-01 00:18:40.758046061,E4_Acc,2024-06-24 09:43:12.400150061,8.0,63.0,9.0
1904-01-01 00:18:40.789296061,E4_Acc,2024-06-24 09:43:12.431400061,8.0,63.0,9.0
1904-01-01 00:18:40.820546061,E4_Acc,2024-06-24 09:43:12.462650061,8.0,64.0,9.0
1904-01-01 00:18:40.851796061,E4_Acc,2024-06-24 09:43:12.493900061,8.0,63.0,9.0
1904-01-01 00:18:40.883046060,E4_Acc,2024-06-24 09:43:12.525150060,8.0,63.0,9.0
1904-01-01 00:18:40.914296061,E4_Acc,2024-06-24 09:43:12.556400061,8.0,63.0,9.0
1904-01-01 00:18:40.945556074,E4_Acc,2024-06-24 09:43:12.587660074,8.0,63.0,9.0
1904-01-01 00:18:40.976806074,E4_Acc,2024-06-24 09:43:12.618910074,8.0,63.0,9.0
1904-01-01 00:18:41.008056074,E4_Acc,2024-06-24 09:43:12.650160074,8.0,63.0,9.0
1904-01-01 00:18:41.039306074,E4_Acc,2024-06-24 09:43:12.681410074,8.0,63.0,9.0
1904-01-01 00:18:41.070556074,E4_Acc,2024-06-24 09:43:12.712660074,8.0,63.0,9.0
1904-01-01 00:18:41.101806074,E4_Acc,2024-06-24 09:43:12.743910074,8.0,63.0,9.0
1904-01-01 00:18:41.133056074,E4_Acc,2024-06-24 09:43:12.775160074,8.0,64.0,9.0
1904-01-01 00:18:41.164316088,E4_Acc,2024-06-24 09:43:12.806420088,8.0,63.0,9.0
1904-01-01 00:18:41.195566088,E4_Acc,2024-06-24 09:43:12.837670088,8.0,63.0,9.0
1904-01-01 00:18:41.226816088,E4_Acc,2024-06-24 09:43:12.868920088,8.0,63.0,9.0
1904-01-01 00:18:41.258066088,E4_Acc,2024-06-24 09:43:12.900170088,8.0,63.0,9.0
1904-01-01 00:18:41.289316088,E4_Acc,2024-06-24 09:43:12.931420088,8.0,63.0,10.0
1904-01-01 00:18:41.320566088,E4_Acc,2024-06-24 09:43:12.962670088,8.0,63.0,10.0
1904-01-01 00:18:41.351816088,E4_Acc,2024-06-24 09:43:12.993920088,8.0,63.0,10.0
1904-01-01 00:18:41.383076101,E4_Acc,2024-06-24 09:43:13.025180101,8.0,63.0,10.0
1904-01-01 00:18:41.414326101,E4_Acc,2024-06-24 09:43:13.056430101,8.0,63.0,10.0
1904-01-01 00:18:41.445576101,E4_Acc,2024-06-24 09:43:13.087680101,8.0,63.0,10.0
1904-01-01 00:18:41.476826101,E4_Acc,2024-06-24 09:43:13.118930101,8.0,63.0,10.0
1904-01-01 00:18:41.508076101,E4_Acc,2024-06-24 09:43:13.150180101,8.0,63.0,10.0
1904-01-01 00:18:41.539326101,E4_Acc,2024-06-24 09:43:13.181430101,8.0,63.0,10.0
1904-01-01 00:18:41.570586115,E4_Acc,2024-06-24 09:43:13.212690115,8.0,63.0,10.0
1904-01-01 00:18:41.601836115,E4_Acc,2024-06-24 09:43:13.243940115,8.0,63.0,10.0
1904-01-01 00:18:41.633086115,E4_Acc,2024-06-24 09:43:13.275190115,8.0,63.0,10.0
1904-01-01 00:18:41.664336115,E4_Acc,2024-06-24 09:43:13.306440115,8.0,63.0,10.0
1904-01-01 00:18:41.695586115,E4_Acc,2024-06-24 09:43:13.337690115,8.0,63.0,10.0
1904-01-01 00:18:41.726836115,E4_Acc,2024-06-24 09:43:13.368940115,8.0,63.0,10.0
1904-01-01 00:18:41.758086115,E4_Acc,2024-06-24 09:43:13.400190115,8.0,63.0,10.0
1904-01-01 00:18:41.789345890,E4_Acc,2024-06-24 09:43:13.431449890,8.0,63.0,10.0
1904-01-01 00:18:41.820595890,E4_Acc,2024-06-24 09:43:13.462699890,8.0,63.0,10.0
1904-01-01 00:18:41.851845890,E4_Acc,2024-06-24 09:43:13.493949890,8.0,63.0,10.0
1904-01-01 00:18:41.883095890,E4_Acc,2024-06-24 09:43:13.525199890,8.0,63.0,10.0
1904-01-01 00:18:41.914345890,E4_Acc,2024-06-24 09:43:13.556449890,8.0,64.0,11.0
1904-01-01 00:18:41.945595890,E4_Acc,2024-06-24 09:43:13.587699890,8.0,63.0,11.0
1904-01-01 00:18:41.976845890,E4_Acc,2024-06-24 09:43:13.618949890,8.0,63.0,11.0
1904-01-01 00:18:42.008105904,E4_Acc,2024-06-24 09:43:13.650209904,8.0,63.0,11.0
1904-01-01 00:18:42.039355904,E4_Acc,2024-06-24 09:43:13.681459904,8.0,63.0,11.0
1904-01-01 00:18:42.070605904,E4_Acc,2024-06-24 09:43:13.712709904,8.0,63.0,11.0
1904-01-01 00:18:42.101855904,E4_Acc,2024-06-24 09:43:13.743959904,8.0,63.0,11.0
1904-01-01 00:18:42.133105904,E4_Acc,2024-06-24 09:43:13.775209904,8.0,63.0,10.0
1904-01-01 00:18:42.164355904,E4_Acc,2024-06-24 09:43:13.806459904,8.0,63.0,10.0
1904-01-01 00:18:42.195605904,E4_Acc,2024-06-24 09:43:13.837709904,9.0,63.0,11.0
1904-01-01 00:18:42.226865917,E4_Acc,2024-06-24 09:43:13.868969917,8.0,63.0,10.0
1904-01-01 00:18:42.258115917,E4_Acc,2024-06-24 09:43:13.900219917,8.0,63.0,11.0
1904-01-01 00:18:42.289365917,E4_Acc,2024-06-24 09:43:13.931469917,8.0,63.0,11.0
1904-01-01 00:18:42.320615917,E4_Acc,2024-06-24 09:43:13.962719917,8.0,63.0,11.0
1904-01-01 00:18:42.351865917,E4_Acc,2024-06-24 09:43:13.993969917,8.0,63.0,11.0
1904-01-01 00:18:42.383115917,E4_Acc,2024-06-24 09:43:14.025219917,8.0,63.0,11.0
1904-01-01 00:18:42.414365917,E4_Acc,2024-06-24 09:43:14.056469917,8.0,63.0,11.0
1904-01-01 00:18:42.445625931,E4_Acc,2024-06-24 09:43:14.087729931,9.0,63.0,11.0
