Seconds,Stream,E4_Seconds,AccX,AccY,AccZ
1904-01-01 00:15:02.644345947,E4_Acc,2024-06-24 13:42:10.412179947,-26.0,-59.0,2.0
1904-01-01 00:15:02.675595947,E4_Acc,2024-06-24 13:42:10.443429947,-26.0,-59.0,2.0
1904-01-01 00:15:02.706845947,E4_Acc,2024-06-24 13:42:10.474679947,-26.0,-59.0,1.0
1904-01-01 00:15:02.738095947,E4_Acc,2024-06-24 13:42:10.505929947,-26.0,-59.0,2.0
1904-01-01 00:15:02.769345947,E4_Acc,2024-06-24 13:42:10.537179947,-26.0,-60.0,1.0
1904-01-01 00:15:02.800595947,E4_Acc,2024-06-24 13:42:10.568429947,-26.0,-59.0,2.0
1904-01-01 00:15:02.831855960,E4_Acc,2024-06-24 13:42:10.599689960,-25.0,-59.0,2.0
1904-01-01 00:15:02.863105960,E4_Acc,2024-06-24 13:42:10.630939960,-25.0,-59.0,1.0
1904-01-01 00:15:02.894355960,E4_Acc,2024-06-24 13:42:10.662189960,-26.0,-59.0,2.0
1904-01-01 00:15:02.925605960,E4_Acc,2024-06-24 13:42:10.693439960,-26.0,-60.0,1.0
1904-01-01 00:15:02.956855960,E4_Acc,2024-06-24 13:42:10.724689960,-26.0,-59.0,1.0
1904-01-01 00:15:02.988105960,E4_Acc,2024-06-24 13:42:10.755939960,-26.0,-59.0,1.0
1904-01-01 00:15:03.019355960,E4_Acc,2024-06-24 13:42:10.787189960,-26.0,-59.0,1.0
1904-01-01 00:15:03.050615974,E4_Acc,2024-06-24 13:42:10.818449974,-26.0,-60.0,2.0
1904-01-01 00:15:03.081865974,E4_Acc,2024-06-24 13:42:10.849699974,-26.0,-60.0,2.0
1904-01-01 00:15:03.113115974,E4_Acc,2024-06-24 13:42:10.880949974,-25.0,-59.0,2.0
1904-01-01 00:15:03.144365974,E4_Acc,2024-06-24 13:42:10.912199974,-26.0,-59.0,1.0
1904-01-01 00:15:03.175615974,E4_Acc,2024-06-24 13:42:10.943449974,-26.0,-60.0,1.0
1904-01-01 00:15:03.206865974,E4_Acc,2024-06-24 13:42:10.974699974,-26.0,-60.0,1.0
1904-01-01 00:15:03.238115974,E4_Acc,2024-06-24 13:42:11.005949974,-26.0,-60.0,2.0
1904-01-01 00:15:03.269375988,E4_Acc,2024-06-24 13:42:11.037209988,-26.0,-59.0,2.0
1904-01-01 00:15:03.300625988,E4_Acc,2024-06-24 13:42:11.068459988,-25.0,-59.0,2.0
1904-01-01 00:15:03.331875988,E4_Acc,2024-06-24 13:42:11.099709988,-26.0,-60.0,2.0
1904-01-01 00:15:03.363125988,E4_Acc,2024-06-24 13:42:11.130959988,-26.0,-60.0,2.0
1904-01-01 00:15:03.394375988,E4_Acc,2024-06-24 13:42:11.162209988,-26.0,-59.0,2.0
1904-01-01 00:15:03.425625988,E4_Acc,2024-06-24 13:42:11.193459988,-26.0,-59.0,1.0
1904-01-01 00:15:03.456875988,E4_Acc,2024-06-24 13:42:11.224709988,-26.0,-59.0,1.0
1904-01-01 00:15:03.488136001,E4_Acc,2024-06-24 13:42:11.255970001,-25.0,-59.0,1.0
1904-01-01 00:15:03.519386001,E4_Acc,2024-06-24 13:42:11.287220001,-26.0,-59.0,1.0
1904-01-01 00:15:03.550636001,E4_Acc,2024-06-24 13:42:11.318470001,-26.0,-59.0,1.0
1904-01-01 00:15:03.581886001,E4_Acc,2024-06-24 13:42:11.349720001,-26.0,-59.0,2.0
1904-01-01 00:15:03.613136001,E4_Acc,2024-06-24 13:42:11.380970001,-26.0,-59.0,2.0
1904-01-01 00:15:03.644386001,E4_Acc,2024-06-24 13:42:11.412220001,-26.0,-59.0,2.0
1904-01-01 00:15:03.675636001,E4_Acc,2024-06-24 13:42:11.443470001,-26.0,-59.0,2.0
1904-01-01 00:15:03.706896015,E4_Acc,2024-06-24 13:42:11.474730015,-26.0,-60.0,2.0
1904-01-01 00:15:03.738146015,E4_Acc,2024-06-24 13:42:11.505980015,-26.0,-59.0,2.0
1904-01-01 00:15:03.769396015,E4_Acc,2024-06-24 13:42:11.537230015,-26.0,-59.0,2.0
1904-01-01 00:15:03.800646015,E4_Acc,2024-06-24 13:42:11.568480015,-26.0,-60.0,2.0
1904-01-01 00:15:03.831896015,E4_Acc,2024-06-24 13:42:11.599730015,-26.0,-60.0,2.0
1904-01-01 00:15:03.863146015,E4_Acc,2024-06-24 13:42:11.630980015,-26.0,-60.0,2.0
1904-01-01 00:15:03.894396015,E4_Acc,2024-06-24 13:42:11.662230015,-26.0,-59.0,2.0
1904-01-01 00:15:03.925656028,E4_Acc,2024-06-24 13:42:11.693490028,-26.0,-59.0,2.0
1904-01-01 00:15:03.956906028,E4_Acc,2024-06-24 13:42:11.724740028,-26.0,-59.0,2.0
1904-01-01 00:15:03.988156028,E4_Acc,2024-06-24 13:42:11.755990028,-26.0,-59.0,2.0
1904-01-01 00:15:04.019406028,E4_Acc,2024-06-24 13:42:11.787240028,-26.0,-59.0,2.0
1904-01-01 00:15:04.050656028,E4_Acc,2024-06-24 13:42:11.818490028,-26.0,-60.0,1.0
1904-01-01 00:15:04.081906028,E4_Acc,2024-06-24 13:42:11.849740028,-26.0,-60.0,1.0
1904-01-01 00:15:04.113156028,E4_Acc,2024-06-24 13:42:11.880990028,-26.0,-59.0,1.0
1904-01-01 00:15:04.144416042,E4_Acc,2024-06-24 13:42:11.912250042,-26.0,-60.0,2.0
1904-01-01 00:15:04.175666042,E4_Acc,2024-06-24 13:42:11.943500042,-26.0,-60.0,2.0
1904-01-01 00:15:04.206916042,E4_Acc,2024-06-24 13:42:11.974750042,-26.0,-59.0,2.0
1904-01-01 00:15:04.238166042,E4_Acc,2024-06-24 13:42:12.006000042,-26.0,-59.0,2.0
1904-01-01 00:15:04.269416042,E4_Acc,2024-06-24 13:42:12.037250042,-26.0,-59.0,1.0
1904-01-01 00:15:04.300666042,E4_Acc,2024-06-24 13:42:12.068500042,-27.0,-59.0,1.0
1904-01-01 00:15:04.331926056,E4_Acc,2024-06-24 13:42:12.099760056,-27.0,-59.0,2.0
1904-01-01 00:15:04.363176056,E4_Acc,2024-06-24 13:42:12.131010056,-26.0,-59.0,2.0
1904-01-01 00:15:04.394426056,E4_Acc,2024-06-24 13:42:12.162260056,-26.0,-59.0,2.0
1904-01-01 00:15:04.425676056,E4_Acc,2024-06-24 13:42:12.193510056,-27.0,-59.0,2.0
1904-01-01 00:15:04.456926056,E4_Acc,2024-06-24 13:42:12.224760056,-27.0,-59.0,2.0
1904-01-01 00:15:04.488176056,E4_Acc,2024-06-24 13:42:12.256010056,-27.0,-59.0,2.0
1904-01-01 00:15:04.519426056,E4_Acc,2024-06-24 13:42:12.287260056,-26.0,-58.0,2.0
1904-01-01 00:15:04.550686069,E4_Acc,2024-06-24 13:42:12.318520069,-26.0,-58.0,2.0
1904-01-01 00:15:04.581936069,E4_Acc,2024-06-24 13:42:12.349770069,-27.0,-59.0,2.0
1904-01-01 00:15:04.613186069,E4_Acc,2024-06-24 13:42:12.381020069,-26.0,-59.0,2.0
1904-01-01 00:15:04.644436069,E4_Acc,2024-06-24 13:42:12.412270069,-26.0,-60.0,2.0
1904-01-01 00:15:04.675686069,E4_Acc,2024-06-24 13:42:12.443520069,-26.0,-59.0,2.0
1904-01-01 00:15:04.706936069,E4_Acc,2024-06-24 13:42:12.474770069,-26.0,-59.0,2.0
1904-01-01 00:15:04.738186068,E4_Acc,2024-06-24 13:42:12.506020068,-26.0,-59.0,2.0
1904-01-01 00:15:04.769446083,E4_Acc,2024-06-24 13:42:12.537280083,-26.0,-59.0,2.0
1904-01-01 00:15:04.800696083,E4_Acc,2024-06-24 13:42:12.568530083,-26.0,-59.0,2.0
1904-01-01 00:15:04.831946083,E4_Acc,2024-06-24 13:42:12.599780083,-26.0,-59.0,2.0
1904-01-01 00:15:04.863196083,E4_Acc,2024-06-24 13:42:12.631030083,-26.0,-59.0,2.0
1904-01-01 00:15:04.894446083,E4_Acc,2024-06-24 13:42:12.662280083,-26.0,-59.0,2.0
1904-01-01 00:15:04.925696083,E4_Acc,2024-06-24 13:42:12.693530083,-26.0,-59.0,2.0
1904-01-01 00:15:04.956946083,E4_Acc,2024-06-24 13:42:12.724780083,-26.0,-59.0,2.0
1904-01-01 00:15:04.988206096,E4_Acc,2024-06-24 13:42:12.756040096,-26.0,-59.0,2.0
1904-01-01 00:15:05.019456096,E4_Acc,2024-06-24 13:42:12.787290096,-26.0,-60.0,2.0
1904-01-01 00:15:05.050706096,E4_Acc,2024-06-24 13:42:12.818540096,-26.0,-59.0,2.0
1904-01-01 00:15:05.081956096,E4_Acc,2024-06-24 13:42:12.849790096,-26.0,-59.0,3.0
1904-01-01 00:15:05.113206096,E4_Acc,2024-06-24 13:42:12.881040096,-26.0,-60.0,3.0
1904-01-01 00:15:05.144456096,E4_Acc,2024-06-24 13:42:12.912290096,-26.0,-59.0,2.0
1904-01-01 00:15:05.175706096,E4_Acc,2024-06-24 13:42:12.943540096,-26.0,-59.0,2.0
1904-01-01 00:15:05.206966110,E4_Acc,2024-06-24 13:42:12.974800110,-26.0,-59.0,2.0
1904-01-01 00:15:05.238216110,E4_Acc,2024-06-24 13:42:13.006050110,-26.0,-60.0,2.0
1904-01-01 00:15:05.269466110,E4_Acc,2024-06-24 13:42:13.037300110,-26.0,-59.0,2.0
1904-01-01 00:15:05.300716110,E4_Acc,2024-06-24 13:42:13.068550110,-25.0,-59.0,2.0
1904-01-01 00:15:05.331966110,E4_Acc,2024-06-24 13:42:13.099800110,-26.0,-59.0,2.0
1904-01-01 00:15:05.363216110,E4_Acc,2024-06-24 13:42:13.131050110,-26.0,-60.0,1.0
1904-01-01 00:15:05.394466110,E4_Acc,2024-06-24 13:42:13.162300110,-26.0,-60.0,2.0
1904-01-01 00:15:05.425725885,E4_Acc,2024-06-24 13:42:13.193559885,-26.0,-59.0,2.0
1904-01-01 00:15:05.456975885,E4_Acc,2024-06-24 13:42:13.224809885,-26.0,-59.0,2.0
1904-01-01 00:15:05.488225885,E4_Acc,2024-06-24 13:42:13.256059885,-26.0,-59.0,2.0
1904-01-01 00:15:05.519475885,E4_Acc,2024-06-24 13:42:13.287309885,-26.0,-59.0,2.0
1904-01-01 00:15:05.550725885,E4_Acc,2024-06-24 13:42:13.318559885,-26.0,-60.0,2.0
1904-01-01 00:15:05.581975885,E4_Acc,2024-06-24 13:42:13.349809885,-25.0,-60.0,2.0
1904-01-01 00:15:05.613225885,E4_Acc,2024-06-24 13:42:13.381059885,-25.0,-59.0,2.0
1904-01-01 00:15:05.644485899,E4_Acc,2024-06-24 13:42:13.412319899,-26.0,-59.0,2.0
1904-01-01 00:15:05.675735899,E4_Acc,2024-06-24 13:42:13.443569899,-26.0,-60.0,1.0
1904-01-01 00:15:05.706985899,E4_Acc,2024-06-24 13:42:13.474819899,-26.0,-60.0,2.0
1904-01-01 00:15:05.738235899,E4_Acc,2024-06-24 13:42:13.506069899,-26.0,-59.0,1.0
1904-01-01 00:15:05.769485899,E4_Acc,2024-06-24 13:42:13.537319899,-26.0,-59.0,2.0
1904-01-01 00:15:05.800735899,E4_Acc,2024-06-24 13:42:13.568569899,-26.0,-59.0,2.0
1904-01-01 00:15:05.831985899,E4_Acc,2024-06-24 13:42:13.599819899,-26.0,-60.0,2.0
1904-01-01 00:15:05.863245912,E4_Acc,2024-06-24 13:42:13.631079912,-26.0,-59.0,1.0
1904-01-01 00:15:05.894495912,E4_Acc,2024-06-24 13:42:13.662329912,-26.0,-60.0,2.0
1904-01-01 00:15:05.925745912,E4_Acc,2024-06-24 13:42:13.693579912,-25.0,-59.0,1.0
1904-01-01 00:15:05.956995912,E4_Acc,2024-06-24 13:42:13.724829912,-26.0,-60.0,1.0
1904-01-01 00:15:05.988245912,E4_Acc,2024-06-24 13:42:13.756079912,-26.0,-60.0,1.0
1904-01-01 00:15:06.019495912,E4_Acc,2024-06-24 13:42:13.787329912,-26.0,-60.0,1.0
1904-01-01 00:15:06.050745912,E4_Acc,2024-06-24 13:42:13.818579912,-26.0,-59.0,1.0
1904-01-01 00:15:06.082005926,E4_Acc,2024-06-24 13:42:13.849839926,-26.0,-59.0,2.0
1904-01-01 00:15:06.113255926,E4_Acc,2024-06-24 13:42:13.881089926,-26.0,-60.0,2.0
1904-01-01 00:15:06.144505926,E4_Acc,2024-06-24 13:42:13.912339926,-26.0,-60.0,2.0
1904-01-01 00:15:06.175755926,E4_Acc,2024-06-24 13:42:13.943589926,-26.0,-60.0,1.0
1904-01-01 00:15:06.207005926,E4_Acc,2024-06-24 13:42:13.974839926,-25.0,-59.0,2.0
1904-01-01 00:15:06.238255926,E4_Acc,2024-06-24 13:42:14.006089926,-25.0,-59.0,1.0
1904-01-01 00:15:06.269505926,E4_Acc,2024-06-24 13:42:14.037339926,-26.0,-59.0,1.0
1904-01-01 00:15:06.300765939,E4_Acc,2024-06-24 13:42:14.068599939,-26.0,-60.0,1.0
1904-01-01 00:15:06.332015939,E4_Acc,2024-06-24 13:42:14.099849939,-26.0,-60.0,1.0
1904-01-01 00:15:06.363265939,E4_Acc,2024-06-24 13:42:14.131099939,-25.0,-60.0,2.0
1904-01-01 00:15:06.394515939,E4_Acc,2024-06-24 13:42:14.162349939,-25.0,-60.0,2.0
1904-01-01 00:15:06.425765939,E4_Acc,2024-06-24 13:42:14.193599939,-25.0,-60.0,2.0
1904-01-01 00:15:06.457015939,E4_Acc,2024-06-24 13:42:14.224849939,-25.0,-60.0,2.0
1904-01-01 00:15:06.488265939,E4_Acc,2024-06-24 13:42:14.256099939,-25.0,-60.0,2.0
1904-01-01 00:15:06.519525953,E4_Acc,2024-06-24 13:42:14.287359953,-25.0,-60.0,2.0
1904-01-01 00:15:06.550775953,E4_Acc,2024-06-24 13:42:14.318609953,-25.0,-60.0,2.0
1904-01-01 00:15:06.582025953,E4_Acc,2024-06-24 13:42:14.349859953,-25.0,-59.0,2.0
1904-01-01 00:15:06.613275953,E4_Acc,2024-06-24 13:42:14.381109953,-25.0,-60.0,2.0
1904-01-01 00:15:06.644525953,E4_Acc,2024-06-24 13:42:14.412359953,-26.0,-61.0,1.0
1904-01-01 00:15:06.675775953,E4_Acc,2024-06-24 13:42:14.443609953,-26.0,-60.0,2.0
1904-01-01 00:15:06.707025953,E4_Acc,2024-06-24 13:42:14.474859953,-25.0,-59.0,2.0
1904-01-01 00:15:06.738285966,E4_Acc,2024-06-24 13:42:14.506119966,-25.0,-59.0,2.0
1904-01-01 00:15:06.769535967,E4_Acc,2024-06-24 13:42:14.537369967,-25.0,-59.0,2.0
1904-01-01 00:15:06.800785967,E4_Acc,2024-06-24 13:42:14.568619967,-25.0,-60.0,1.0
1904-01-01 00:15:06.832035967,E4_Acc,2024-06-24 13:42:14.599869967,-25.0,-60.0,2.0
1904-01-01 00:15:06.863285967,E4_Acc,2024-06-24 13:42:14.631119967,-25.0,-60.0,2.0
1904-01-01 00:15:06.894535967,E4_Acc,2024-06-24 13:42:14.662369967,-25.0,-60.0,2.0
1904-01-01 00:15:06.925785967,E4_Acc,2024-06-24 13:42:14.693619967,-25.0,-60.0,2.0
1904-01-01 00:15:06.957045980,E4_Acc,2024-06-24 13:42:14.724879980,-25.0,-60.0,2.0
1904-01-01 00:15:06.988295980,E4_Acc,2024-06-24 13:42:14.756129980,-25.0,-59.0,2.0
1904-01-01 00:15:07.019545980,E4_Acc,2024-06-24 13:42:14.787379980,-25.0,-59.0,2.0
1904-01-01 00:15:07.050795980,E4_Acc,2024-06-24 13:42:14.818629980,-25.0,-60.0,2.0
1904-01-01 00:15:07.082045980,E4_Acc,2024-06-24 13:42:14.849879980,-25.0,-60.0,2.0
1904-01-01 00:15:07.113295980,E4_Acc,2024-06-24 13:42:14.881129980,-25.0,-60.0,2.0
1904-01-01 00:15:07.144555994,E4_Acc,2024-06-24 13:42:14.912389994,-25.0,-59.0,2.0
1904-01-01 00:15:07.175805994,E4_Acc,2024-06-24 13:42:14.943639994,-25.0,-59.0,2.0
1904-01-01 00:15:07.207055994,E4_Acc,2024-06-24 13:42:14.974889994,-25.0,-60.0,2.0
1904-01-01 00:15:07.238305994,E4_Acc,2024-06-24 13:42:15.006139994,-25.0,-60.0,2.0
1904-01-01 00:15:07.269555994,E4_Acc,2024-06-24 13:42:15.037389994,-25.0,-60.0,2.0
1904-01-01 00:15:07.300805994,E4_Acc,2024-06-24 13:42:15.068639994,-25.0,-59.0,2.0
1904-01-01 00:15:07.332055994,E4_Acc,2024-06-24 13:42:15.099889994,-25.0,-60.0,2.0
1904-01-01 00:15:07.363316007,E4_Acc,2024-06-24 13:42:15.131150007,-25.0,-59.0,2.0
1904-01-01 00:15:07.394566007,E4_Acc,2024-06-24 13:42:15.162400007,-25.0,-60.0,2.0
1904-01-01 00:15:07.425816007,E4_Acc,2024-06-24 13:42:15.193650007,-25.0,-60.0,2.0
1904-01-01 00:15:07.457066007,E4_Acc,2024-06-24 13:42:15.224900007,-24.0,-60.0,2.0
1904-01-01 00:15:07.488316007,E4_Acc,2024-06-24 13:42:15.256150007,-24.0,-60.0,2.0
1904-01-01 00:15:07.519566007,E4_Acc,2024-06-24 13:42:15.287400007,-25.0,-60.0,2.0
1904-01-01 00:15:07.550816007,E4_Acc,2024-06-24 13:42:15.318650007,-25.0,-60.0,2.0
1904-01-01 00:15:07.582076021,E4_Acc,2024-06-24 13:42:15.349910021,-25.0,-60.0,2.0
1904-01-01 00:15:07.613326021,E4_Acc,2024-06-24 13:42:15.381160021,-24.0,-60.0,2.0
1904-01-01 00:15:07.644576021,E4_Acc,2024-06-24 13:42:15.412410021,-25.0,-59.0,2.0
1904-01-01 00:15:07.675826021,E4_Acc,2024-06-24 13:42:15.443660021,-25.0,-60.0,1.0
1904-01-01 00:15:07.707076021,E4_Acc,2024-06-24 13:42:15.474910021,-25.0,-60.0,2.0
1904-01-01 00:15:07.738326021,E4_Acc,2024-06-24 13:42:15.506160021,-25.0,-60.0,1.0
1904-01-01 00:15:07.769576021,E4_Acc,2024-06-24 13:42:15.537410021,-25.0,-60.0,2.0
1904-01-01 00:15:07.800836034,E4_Acc,2024-06-24 13:42:15.568670034,-25.0,-60.0,2.0
1904-01-01 00:15:07.832086034,E4_Acc,2024-06-24 13:42:15.599920034,-25.0,-60.0,2.0
1904-01-01 00:15:07.863336034,E4_Acc,2024-06-24 13:42:15.631170034,-24.0,-60.0,2.0
1904-01-01 00:15:07.894586034,E4_Acc,2024-06-24 13:42:15.662420034,-24.0,-60.0,2.0
1904-01-01 00:15:07.925836034,E4_Acc,2024-06-24 13:42:15.693670034,-25.0,-60.0,2.0
1904-01-01 00:15:07.957086034,E4_Acc,2024-06-24 13:42:15.724920034,-25.0,-60.0,2.0
1904-01-01 00:15:07.988336034,E4_Acc,2024-06-24 13:42:15.756170034,-25.0,-60.0,2.0
1904-01-01 00:15:08.019596048,E4_Acc,2024-06-24 13:42:15.787430048,-25.0,-60.0,1.0
1904-01-01 00:15:08.050846048,E4_Acc,2024-06-24 13:42:15.818680048,-25.0,-59.0,1.0
1904-01-01 00:15:08.082096048,E4_Acc,2024-06-24 13:42:15.849930048,-25.0,-60.0,1.0
1904-01-01 00:15:08.113346048,E4_Acc,2024-06-24 13:42:15.881180048,-25.0,-59.0,1.0
1904-01-01 00:15:08.144596048,E4_Acc,2024-06-24 13:42:15.912430048,-25.0,-60.0,1.0
1904-01-01 00:15:08.175846048,E4_Acc,2024-06-24 13:42:15.943680048,-25.0,-60.0,2.0
1904-01-01 00:15:08.207096048,E4_Acc,2024-06-24 13:42:15.974930048,-25.0,-60.0,2.0
1904-01-01 00:15:08.238356062,E4_Acc,2024-06-24 13:42:16.006190062,-25.0,-60.0,2.0
1904-01-01 00:15:08.269606062,E4_Acc,2024-06-24 13:42:16.037440062,-25.0,-60.0,2.0
1904-01-01 00:15:08.300856062,E4_Acc,2024-06-24 13:42:16.068690062,-25.0,-60.0,2.0
1904-01-01 00:15:08.332106062,E4_Acc,2024-06-24 13:42:16.099940062,-25.0,-60.0,2.0
1904-01-01 00:15:08.363356062,E4_Acc,2024-06-24 13:42:16.131190062,-25.0,-60.0,2.0
1904-01-01 00:15:08.394606062,E4_Acc,2024-06-24 13:42:16.162440062,-24.0,-59.0,2.0
1904-01-01 00:15:08.425856062,E4_Acc,2024-06-24 13:42:16.193690062,-24.0,-60.0,1.0
1904-01-01 00:15:08.457116075,E4_Acc,2024-06-24 13:42:16.224950075,-25.0,-60.0,2.0
1904-01-01 00:15:08.488366075,E4_Acc,2024-06-24 13:42:16.256200075,-25.0,-60.0,1.0
1904-01-01 00:15:08.519616075,E4_Acc,2024-06-24 13:42:16.287450075,-25.0,-60.0,1.0
1904-01-01 00:15:08.550866075,E4_Acc,2024-06-24 13:42:16.318700075,-25.0,-60.0,2.0
1904-01-01 00:15:08.582116075,E4_Acc,2024-06-24 13:42:16.349950075,-25.0,-60.0,1.0
1904-01-01 00:15:08.613366075,E4_Acc,2024-06-24 13:42:16.381200075,-25.0,-60.0,1.0
1904-01-01 00:15:08.644616075,E4_Acc,2024-06-24 13:42:16.412450075,-25.0,-60.0,1.0
1904-01-01 00:15:08.675876089,E4_Acc,2024-06-24 13:42:16.443710089,-24.0,-60.0,1.0
1904-01-01 00:15:08.707126089,E4_Acc,2024-06-24 13:42:16.474960089,-24.0,-60.0,1.0
1904-01-01 00:15:08.738376089,E4_Acc,2024-06-24 13:42:16.506210089,-24.0,-60.0,1.0
1904-01-01 00:15:08.769626089,E4_Acc,2024-06-24 13:42:16.537460089,-24.0,-60.0,1.0
1904-01-01 00:15:08.800876089,E4_Acc,2024-06-24 13:42:16.568710089,-25.0,-60.0,1.0
1904-01-01 00:15:08.832126089,E4_Acc,2024-06-24 13:42:16.599960089,-25.0,-60.0,1.0
1904-01-01 00:15:08.863376089,E4_Acc,2024-06-24 13:42:16.631210089,-25.0,-60.0,1.0
1904-01-01 00:15:08.894636102,E4_Acc,2024-06-24 13:42:16.662470102,-25.0,-60.0,2.0
1904-01-01 00:15:08.925886102,E4_Acc,2024-06-24 13:42:16.693720102,-25.0,-60.0,1.0
1904-01-01 00:15:08.957136102,E4_Acc,2024-06-24 13:42:16.724970102,-25.0,-60.0,1.0
1904-01-01 00:15:08.988386102,E4_Acc,2024-06-24 13:42:16.756220102,-25.0,-60.0,1.0
1904-01-01 00:15:09.019636102,E4_Acc,2024-06-24 13:42:16.787470102,-25.0,-59.0,2.0
1904-01-01 00:15:09.050886102,E4_Acc,2024-06-24 13:42:16.818720102,-25.0,-60.0,1.0
1904-01-01 00:15:09.082136102,E4_Acc,2024-06-24 13:42:16.849970102,-25.0,-60.0,1.0
1904-01-01 00:15:09.113396116,E4_Acc,2024-06-24 13:42:16.881230116,-25.0,-60.0,1.0
1904-01-01 00:15:09.144646116,E4_Acc,2024-06-24 13:42:16.912480116,-25.0,-60.0,1.0
1904-01-01 00:15:09.175896116,E4_Acc,2024-06-24 13:42:16.943730116,-24.0,-59.0,1.0
1904-01-01 00:15:09.207146116,E4_Acc,2024-06-24 13:42:16.974980116,-25.0,-60.0,1.0
1904-01-01 00:15:09.238396116,E4_Acc,2024-06-24 13:42:17.006230116,-25.0,-60.0,1.0
1904-01-01 00:15:09.269646116,E4_Acc,2024-06-24 13:42:17.037480116,-25.0,-60.0,1.0
1904-01-01 00:15:09.300905891,E4_Acc,2024-06-24 13:42:17.068739891,-25.0,-60.0,2.0
1904-01-01 00:15:09.332155891,E4_Acc,2024-06-24 13:42:17.099989891,-25.0,-60.0,2.0
1904-01-01 00:15:09.363405891,E4_Acc,2024-06-24 13:42:17.131239891,-25.0,-60.0,2.0
1904-01-01 00:15:09.394655891,E4_Acc,2024-06-24 13:42:17.162489891,-25.0,-60.0,2.0
1904-01-01 00:15:09.425905891,E4_Acc,2024-06-24 13:42:17.193739891,-25.0,-60.0,2.0
1904-01-01 00:15:09.457155891,E4_Acc,2024-06-24 13:42:17.224989891,-25.0,-60.0,2.0
1904-01-01 00:15:09.488405891,E4_Acc,2024-06-24 13:42:17.256239891,-25.0,-60.0,1.0
1904-01-01 00:15:09.519665905,E4_Acc,2024-06-24 13:42:17.287499905,-25.0,-60.0,1.0
1904-01-01 00:15:09.550915905,E4_Acc,2024-06-24 13:42:17.318749905,-25.0,-60.0,1.0
1904-01-01 00:15:09.582165905,E4_Acc,2024-06-24 13:42:17.349999905,-25.0,-60.0,1.0
1904-01-01 00:15:09.613415905,E4_Acc,2024-06-24 13:42:17.381249905,-25.0,-59.0,1.0
1904-01-01 00:15:09.644665905,E4_Acc,2024-06-24 13:42:17.412499905,-25.0,-60.0,1.0
1904-01-01 00:15:09.675915905,E4_Acc,2024-06-24 13:42:17.443749905,-25.0,-59.0,1.0
1904-01-01 00:15:09.707165905,E4_Acc,2024-06-24 13:42:17.474999905,-25.0,-60.0,1.0
1904-01-01 00:15:09.738425918,E4_Acc,2024-06-24 13:42:17.506259918,-25.0,-60.0,1.0
1904-01-01 00:15:09.769675918,E4_Acc,2024-06-24 13:42:17.537509918,-25.0,-60.0,2.0
1904-01-01 00:15:09.800925918,E4_Acc,2024-06-24 13:42:17.568759918,-25.0,-59.0,1.0
1904-01-01 00:15:09.832175918,E4_Acc,2024-06-24 13:42:17.600009918,-25.0,-59.0,2.0
1904-01-01 00:15:09.863425918,E4_Acc,2024-06-24 13:42:17.631259918,-25.0,-60.0,2.0
1904-01-01 00:15:09.894675918,E4_Acc,2024-06-24 13:42:17.662509918,-26.0,-60.0,2.0
1904-01-01 00:15:09.925925918,E4_Acc,2024-06-24 13:42:17.693759918,-25.0,-60.0,2.0
1904-01-01 00:15:09.957185932,E4_Acc,2024-06-24 13:42:17.725019932,-25.0,-60.0,2.0
1904-01-01 00:15:09.988435932,E4_Acc,2024-06-24 13:42:17.756269932,-26.0,-60.0,2.0
1904-01-01 00:15:10.019685932,E4_Acc,2024-06-24 13:42:17.787519932,-25.0,-60.0,2.0
1904-01-01 00:15:10.050935932,E4_Acc,2024-06-24 13:42:17.818769932,-25.0,-59.0,2.0
1904-01-01 00:15:10.082185932,E4_Acc,2024-06-24 13:42:17.850019932,-25.0,-59.0,1.0
1904-01-01 00:15:10.113435932,E4_Acc,2024-06-24 13:42:17.881269932,-25.0,-60.0,2.0
1904-01-01 00:15:10.144685932,E4_Acc,2024-06-24 13:42:17.912519932,-25.0,-60.0,2.0
1904-01-01 00:15:10.175945945,E4_Acc,2024-06-24 13:42:17.943779945,-25.0,-60.0,2.0
1904-01-01 00:15:10.207195945,E4_Acc,2024-06-24 13:42:17.975029945,-25.0,-59.0,2.0
1904-01-01 00:15:10.238445945,E4_Acc,2024-06-24 13:42:18.006279945,-25.0,-59.0,2.0
1904-01-01 00:15:10.269695945,E4_Acc,2024-06-24 13:42:18.037529945,-25.0,-60.0,2.0
1904-01-01 00:15:10.300945945,E4_Acc,2024-06-24 13:42:18.068779945,-25.0,-60.0,2.0
1904-01-01 00:15:10.332195945,E4_Acc,2024-06-24 13:42:18.100029945,-25.0,-60.0,2.0
1904-01-01 00:15:10.363445945,E4_Acc,2024-06-24 13:42:18.131279945,-25.0,-60.0,2.0
1904-01-01 00:15:10.394705959,E4_Acc,2024-06-24 13:42:18.162539959,-25.0,-60.0,2.0
1904-01-01 00:15:10.425955959,E4_Acc,2024-06-24 13:42:18.193789959,-25.0,-60.0,2.0
1904-01-01 00:15:10.457205959,E4_Acc,2024-06-24 13:42:18.225039959,-25.0,-59.0,2.0
1904-01-01 00:15:10.488455959,E4_Acc,2024-06-24 13:42:18.256289959,-25.0,-60.0,2.0
1904-01-01 00:15:10.519705959,E4_Acc,2024-06-24 13:42:18.287539959,-25.0,-60.0,2.0
1904-01-01 00:15:10.550955959,E4_Acc,2024-06-24 13:42:18.318789959,-25.0,-59.0,2.0
1904-01-01 00:15:10.582205959,E4_Acc,2024-06-24 13:42:18.350039959,-25.0,-59.0,2.0
1904-01-01 00:15:10.613465973,E4_Acc,2024-06-24 13:42:18.381299973,-25.0,-60.0,2.0
1904-01-01 00:15:10.644715973,E4_Acc,2024-06-24 13:42:18.412549973,-25.0,-60.0,2.0
1904-01-01 00:15:10.675965973,E4_Acc,2024-06-24 13:42:18.443799973,-25.0,-60.0,1.0
1904-01-01 00:15:10.707215973,E4_Acc,2024-06-24 13:42:18.475049973,-24.0,-59.0,2.0
1904-01-01 00:15:10.738465972,E4_Acc,2024-06-24 13:42:18.506299972,-24.0,-60.0,2.0
1904-01-01 00:15:10.769715973,E4_Acc,2024-06-24 13:42:18.537549973,-25.0,-60.0,1.0
1904-01-01 00:15:10.800965973,E4_Acc,2024-06-24 13:42:18.568799973,-25.0,-60.0,2.0
1904-01-01 00:15:10.832225986,E4_Acc,2024-06-24 13:42:18.600059986,-25.0,-60.0,2.0
1904-01-01 00:15:10.863475986,E4_Acc,2024-06-24 13:42:18.631309986,-24.0,-60.0,2.0
1904-01-01 00:15:10.894725986,E4_Acc,2024-06-24 13:42:18.662559986,-24.0,-60.0,2.0
1904-01-01 00:15:10.925975986,E4_Acc,2024-06-24 13:42:18.693809986,-24.0,-60.0,2.0
1904-01-01 00:15:10.957225986,E4_Acc,2024-06-24 13:42:18.725059986,-24.0,-60.0,2.0
1904-01-01 00:15:10.988475986,E4_Acc,2024-06-24 13:42:18.756309986,-24.0,-60.0,1.0
1904-01-01 00:15:11.019725986,E4_Acc,2024-06-24 13:42:18.787559986,-24.0,-60.0,2.0
1904-01-01 00:15:11.050986000,E4_Acc,2024-06-24 13:42:18.818820000,-25.0,-60.0,1.0
1904-01-01 00:15:11.082236000,E4_Acc,2024-06-24 13:42:18.850070000,-25.0,-60.0,1.0
1904-01-01 00:15:11.113486000,E4_Acc,2024-06-24 13:42:18.881320000,-25.0,-60.0,1.0
1904-01-01 00:15:11.144736000,E4_Acc,2024-06-24 13:42:18.912570000,-25.0,-60.0,1.0
1904-01-01 00:15:11.175986000,E4_Acc,2024-06-24 13:42:18.943820000,-25.0,-60.0,2.0
1904-01-01 00:15:11.207236000,E4_Acc,2024-06-24 13:42:18.975070000,-25.0,-60.0,2.0
1904-01-01 00:15:11.238486000,E4_Acc,2024-06-24 13:42:19.006320000,-25.0,-60.0,2.0
1904-01-01 00:15:11.269746013,E4_Acc,2024-06-24 13:42:19.037580013,-25.0,-60.0,1.0
1904-01-01 00:15:11.300996013,E4_Acc,2024-06-24 13:42:19.068830013,-25.0,-60.0,2.0
1904-01-01 00:15:11.332246013,E4_Acc,2024-06-24 13:42:19.100080013,-25.0,-60.0,2.0
1904-01-01 00:15:11.363496013,E4_Acc,2024-06-24 13:42:19.131330013,-25.0,-59.0,2.0
1904-01-01 00:15:11.394746013,E4_Acc,2024-06-24 13:42:19.162580013,-25.0,-60.0,2.0
1904-01-01 00:15:11.425996013,E4_Acc,2024-06-24 13:42:19.193830013,-25.0,-60.0,1.0
1904-01-01 00:15:11.457246013,E4_Acc,2024-06-24 13:42:19.225080013,-25.0,-60.0,1.0
1904-01-01 00:15:11.488506027,E4_Acc,2024-06-24 13:42:19.256340027,-25.0,-59.0,1.0
1904-01-01 00:15:11.519756027,E4_Acc,2024-06-24 13:42:19.287590027,-25.0,-60.0,1.0
1904-01-01 00:15:11.551006027,E4_Acc,2024-06-24 13:42:19.318840027,-25.0,-60.0,1.0
1904-01-01 00:15:11.582256027,E4_Acc,2024-06-24 13:42:19.350090027,-25.0,-60.0,2.0
1904-01-01 00:15:11.613506027,E4_Acc,2024-06-24 13:42:19.381340027,-25.0,-60.0,2.0
1904-01-01 00:15:11.644756027,E4_Acc,2024-06-24 13:42:19.412590027,-25.0,-59.0,2.0
1904-01-01 00:15:11.676016040,E4_Acc,2024-06-24 13:42:19.443850040,-25.0,-60.0,2.0
1904-01-01 00:15:11.707266040,E4_Acc,2024-06-24 13:42:19.475100040,-25.0,-60.0,2.0
1904-01-01 00:15:11.738516039,E4_Acc,2024-06-24 13:42:19.506350039,-25.0,-60.0,2.0
1904-01-01 00:15:11.769766040,E4_Acc,2024-06-24 13:42:19.537600040,-25.0,-60.0,2.0
1904-01-01 00:15:11.801016040,E4_Acc,2024-06-24 13:42:19.568850040,-25.0,-60.0,1.0
1904-01-01 00:15:11.832266040,E4_Acc,2024-06-24 13:42:19.600100040,-25.0,-60.0,2.0
1904-01-01 00:15:11.863516040,E4_Acc,2024-06-24 13:42:19.631350040,-25.0,-60.0,1.0
1904-01-01 00:15:11.894776054,E4_Acc,2024-06-24 13:42:19.662610054,-25.0,-60.0,1.0
1904-01-01 00:15:11.926026054,E4_Acc,2024-06-24 13:42:19.693860054,-25.0,-60.0,1.0
1904-01-01 00:15:11.957276054,E4_Acc,2024-06-24 13:42:19.725110054,-25.0,-60.0,2.0
1904-01-01 00:15:11.988526054,E4_Acc,2024-06-24 13:42:19.756360054,-25.0,-60.0,1.0
1904-01-01 00:15:12.019776054,E4_Acc,2024-06-24 13:42:19.787610054,-25.0,-59.0,1.0
1904-01-01 00:15:12.051026054,E4_Acc,2024-06-24 13:42:19.818860054,-25.0,-60.0,1.0
1904-01-01 00:15:12.082276054,E4_Acc,2024-06-24 13:42:19.850110054,-26.0,-60.0,1.0
1904-01-01 00:15:12.113536068,E4_Acc,2024-06-24 13:42:19.881370068,-26.0,-59.0,2.0
1904-01-01 00:15:12.144786068,E4_Acc,2024-06-24 13:42:19.912620068,-25.0,-59.0,2.0
1904-01-01 00:15:12.176036068,E4_Acc,2024-06-24 13:42:19.943870068,-25.0,-60.0,2.0
1904-01-01 00:15:12.207286068,E4_Acc,2024-06-24 13:42:19.975120068,-25.0,-60.0,2.0
1904-01-01 00:15:12.238536068,E4_Acc,2024-06-24 13:42:20.006370068,-25.0,-60.0,2.0
1904-01-01 00:15:12.269786068,E4_Acc,2024-06-24 13:42:20.037620068,-25.0,-59.0,1.0
1904-01-01 00:15:12.301036068,E4_Acc,2024-06-24 13:42:20.068870068,-25.0,-60.0,1.0
1904-01-01 00:15:12.332296081,E4_Acc,2024-06-24 13:42:20.100130081,-25.0,-60.0,1.0
1904-01-01 00:15:12.363546081,E4_Acc,2024-06-24 13:42:20.131380081,-25.0,-60.0,2.0
1904-01-01 00:15:12.394796081,E4_Acc,2024-06-24 13:42:20.162630081,-25.0,-60.0,2.0
1904-01-01 00:15:12.426046081,E4_Acc,2024-06-24 13:42:20.193880081,-24.0,-59.0,2.0
1904-01-01 00:15:12.457296081,E4_Acc,2024-06-24 13:42:20.225130081,-25.0,-60.0,1.0
1904-01-01 00:15:12.488546080,E4_Acc,2024-06-24 13:42:20.256380080,-25.0,-60.0,1.0
1904-01-01 00:15:12.519796081,E4_Acc,2024-06-24 13:42:20.287630081,-25.0,-60.0,1.0
1904-01-01 00:15:12.551056095,E4_Acc,2024-06-24 13:42:20.318890095,-25.0,-60.0,1.0
1904-01-01 00:15:12.582306095,E4_Acc,2024-06-24 13:42:20.350140095,-25.0,-60.0,2.0
1904-01-01 00:15:12.613556095,E4_Acc,2024-06-24 13:42:20.381390095,-25.0,-60.0,2.0
1904-01-01 00:15:12.644806095,E4_Acc,2024-06-24 13:42:20.412640095,-25.0,-60.0,2.0
1904-01-01 00:15:12.676056095,E4_Acc,2024-06-24 13:42:20.443890095,-25.0,-60.0,2.0
1904-01-01 00:15:12.707306095,E4_Acc,2024-06-24 13:42:20.475140095,-25.0,-60.0,1.0
1904-01-01 00:15:12.738556095,E4_Acc,2024-06-24 13:42:20.506390095,-25.0,-60.0,1.0
1904-01-01 00:15:12.769816108,E4_Acc,2024-06-24 13:42:20.537650108,-25.0,-60.0,1.0
1904-01-01 00:15:12.801066108,E4_Acc,2024-06-24 13:42:20.568900108,-25.0,-60.0,2.0
1904-01-01 00:15:12.832316108,E4_Acc,2024-06-24 13:42:20.600150108,-25.0,-60.0,1.0
1904-01-01 00:15:12.863566108,E4_Acc,2024-06-24 13:42:20.631400108,-25.0,-60.0,1.0
1904-01-01 00:15:12.894816108,E4_Acc,2024-06-24 13:42:20.662650108,-25.0,-60.0,2.0
1904-01-01 00:15:12.926066108,E4_Acc,2024-06-24 13:42:20.693900108,-25.0,-60.0,1.0
1904-01-01 00:15:12.957316108,E4_Acc,2024-06-24 13:42:20.725150108,-25.0,-60.0,1.0
1904-01-01 00:15:12.988575883,E4_Acc,2024-06-24 13:42:20.756409883,-25.0,-59.0,1.0
1904-01-01 00:15:13.019825883,E4_Acc,2024-06-24 13:42:20.787659883,-25.0,-60.0,1.0
1904-01-01 00:15:13.051075883,E4_Acc,2024-06-24 13:42:20.818909883,-25.0,-60.0,1.0
1904-01-01 00:15:13.082325883,E4_Acc,2024-06-24 13:42:20.850159883,-25.0,-59.0,1.0
1904-01-01 00:15:13.113575883,E4_Acc,2024-06-24 13:42:20.881409883,-25.0,-59.0,1.0
1904-01-01 00:15:13.144825883,E4_Acc,2024-06-24 13:42:20.912659883,-26.0,-60.0,1.0
1904-01-01 00:15:13.176075883,E4_Acc,2024-06-24 13:42:20.943909883,-25.0,-60.0,2.0
1904-01-01 00:15:13.207335897,E4_Acc,2024-06-24 13:42:20.975169897,-25.0,-60.0,2.0
1904-01-01 00:15:13.238585897,E4_Acc,2024-06-24 13:42:21.006419897,-25.0,-60.0,2.0
1904-01-01 00:15:13.269835897,E4_Acc,2024-06-24 13:42:21.037669897,-25.0,-60.0,2.0
1904-01-01 00:15:13.301085897,E4_Acc,2024-06-24 13:42:21.068919897,-25.0,-60.0,2.0
1904-01-01 00:15:13.332335897,E4_Acc,2024-06-24 13:42:21.100169897,-25.0,-60.0,1.0
1904-01-01 00:15:13.363585897,E4_Acc,2024-06-24 13:42:21.131419897,-25.0,-60.0,1.0
1904-01-01 00:15:13.394835897,E4_Acc,2024-06-24 13:42:21.162669897,-25.0,-60.0,1.0
1904-01-01 00:15:13.426095911,E4_Acc,2024-06-24 13:42:21.193929911,-25.0,-60.0,1.0
1904-01-01 00:15:13.457345911,E4_Acc,2024-06-24 13:42:21.225179911,-25.0,-60.0,1.0
1904-01-01 00:15:13.488595911,E4_Acc,2024-06-24 13:42:21.256429911,-25.0,-60.0,0.0
1904-01-01 00:15:13.519845911,E4_Acc,2024-06-24 13:42:21.287679911,-25.0,-60.0,0.0
1904-01-01 00:15:13.551095911,E4_Acc,2024-06-24 13:42:21.318929911,-25.0,-60.0,1.0
1904-01-01 00:15:13.582345911,E4_Acc,2024-06-24 13:42:21.350179911,-24.0,-60.0,1.0
1904-01-01 00:15:13.613595911,E4_Acc,2024-06-24 13:42:21.381429911,-24.0,-60.0,2.0
1904-01-01 00:15:13.644855924,E4_Acc,2024-06-24 13:42:21.412689924,-25.0,-61.0,1.0
1904-01-01 00:15:13.676105924,E4_Acc,2024-06-24 13:42:21.443939924,-25.0,-61.0,2.0
1904-01-01 00:15:13.707355924,E4_Acc,2024-06-24 13:42:21.475189924,-24.0,-60.0,2.0
1904-01-01 00:15:13.738605924,E4_Acc,2024-06-24 13:42:21.506439924,-24.0,-60.0,2.0
1904-01-01 00:15:13.769855924,E4_Acc,2024-06-24 13:42:21.537689924,-24.0,-60.0,2.0
1904-01-01 00:15:13.801105924,E4_Acc,2024-06-24 13:42:21.568939924,-24.0,-61.0,1.0
1904-01-01 00:15:13.832355924,E4_Acc,2024-06-24 13:42:21.600189924,-24.0,-60.0,1.0
1904-01-01 00:15:13.863615938,E4_Acc,2024-06-24 13:42:21.631449938,-24.0,-59.0,1.0
1904-01-01 00:15:13.894865938,E4_Acc,2024-06-24 13:42:21.662699938,-24.0,-60.0,1.0
1904-01-01 00:15:13.926115938,E4_Acc,2024-06-24 13:42:21.693949938,-25.0,-59.0,1.0
1904-01-01 00:15:13.957365938,E4_Acc,2024-06-24 13:42:21.725199938,-25.0,-60.0,1.0
1904-01-01 00:15:13.988615938,E4_Acc,2024-06-24 13:42:21.756449938,-25.0,-60.0,1.0
1904-01-01 00:15:14.019865938,E4_Acc,2024-06-24 13:42:21.787699938,-25.0,-60.0,2.0
1904-01-01 00:15:14.051115938,E4_Acc,2024-06-24 13:42:21.818949938,-25.0,-60.0,2.0
1904-01-01 00:15:14.082375951,E4_Acc,2024-06-24 13:42:21.850209951,-25.0,-60.0,2.0
1904-01-01 00:15:14.113625951,E4_Acc,2024-06-24 13:42:21.881459951,-26.0,-61.0,2.0
1904-01-01 00:15:14.144875951,E4_Acc,2024-06-24 13:42:21.912709951,-26.0,-61.0,3.0
1904-01-01 00:15:14.176125951,E4_Acc,2024-06-24 13:42:21.943959951,-25.0,-60.0,2.0
1904-01-01 00:15:14.207375951,E4_Acc,2024-06-24 13:42:21.975209951,-27.0,-60.0,0.0
1904-01-01 00:15:14.238625951,E4_Acc,2024-06-24 13:42:22.006459951,-28.0,-58.0,-1.0
1904-01-01 00:15:14.269885965,E4_Acc,2024-06-24 13:42:22.037719965,-27.0,-57.0,-3.0
1904-01-01 00:15:14.301135965,E4_Acc,2024-06-24 13:42:22.068969965,-27.0,-57.0,-2.0
1904-01-01 00:15:14.332385965,E4_Acc,2024-06-24 13:42:22.100219965,-25.0,-57.0,0.0
1904-01-01 00:15:14.363635965,E4_Acc,2024-06-24 13:42:22.131469965,-26.0,-59.0,-1.0
1904-01-01 00:15:14.394885965,E4_Acc,2024-06-24 13:42:22.162719965,-26.0,-60.0,-1.0
1904-01-01 00:15:14.426135965,E4_Acc,2024-06-24 13:42:22.193969965,-25.0,-61.0,0.0
1904-01-01 00:15:14.457385965,E4_Acc,2024-06-24 13:42:22.225219965,-25.0,-60.0,0.0
1904-01-01 00:15:14.488645979,E4_Acc,2024-06-24 13:42:22.256479979,-25.0,-60.0,0.0
1904-01-01 00:15:14.519895979,E4_Acc,2024-06-24 13:42:22.287729979,-25.0,-60.0,-1.0
1904-01-01 00:15:14.551145979,E4_Acc,2024-06-24 13:42:22.318979979,-25.0,-59.0,-1.0
1904-01-01 00:15:14.582395979,E4_Acc,2024-06-24 13:42:22.350229979,-26.0,-58.0,-1.0
1904-01-01 00:15:14.613645979,E4_Acc,2024-06-24 13:42:22.381479979,-26.0,-59.0,-1.0
1904-01-01 00:15:14.644895979,E4_Acc,2024-06-24 13:42:22.412729979,-27.0,-59.0,-1.0
1904-01-01 00:15:14.676145979,E4_Acc,2024-06-24 13:42:22.443979979,-27.0,-59.0,-1.0
1904-01-01 00:15:14.707405992,E4_Acc,2024-06-24 13:42:22.475239992,-27.0,-59.0,-1.0
1904-01-01 00:15:14.738655992,E4_Acc,2024-06-24 13:42:22.506489992,-28.0,-59.0,-1.0
1904-01-01 00:15:14.769905992,E4_Acc,2024-06-24 13:42:22.537739992,-27.0,-58.0,-1.0
1904-01-01 00:15:14.801155992,E4_Acc,2024-06-24 13:42:22.568989992,-27.0,-58.0,0.0
1904-01-01 00:15:14.832405992,E4_Acc,2024-06-24 13:42:22.600239992,-27.0,-58.0,-1.0
1904-01-01 00:15:14.863655992,E4_Acc,2024-06-24 13:42:22.631489992,-27.0,-58.0,-1.0
1904-01-01 00:15:14.894905992,E4_Acc,2024-06-24 13:42:22.662739992,-26.0,-59.0,-1.0
1904-01-01 00:15:14.926166006,E4_Acc,2024-06-24 13:42:22.694000006,-26.0,-61.0,-1.0
1904-01-01 00:15:14.957416006,E4_Acc,2024-06-24 13:42:22.725250006,-25.0,-60.0,-1.0
1904-01-01 00:15:14.988666006,E4_Acc,2024-06-24 13:42:22.756500006,-25.0,-59.0,-1.0
1904-01-01 00:15:15.019916006,E4_Acc,2024-06-24 13:42:22.787750006,-26.0,-59.0,-2.0
1904-01-01 00:15:15.051166006,E4_Acc,2024-06-24 13:42:22.819000006,-25.0,-60.0,-2.0
1904-01-01 00:15:15.082416006,E4_Acc,2024-06-24 13:42:22.850250006,-26.0,-60.0,-1.0
1904-01-01 00:15:15.113666006,E4_Acc,2024-06-24 13:42:22.881500006,-26.0,-59.0,-1.0
1904-01-01 00:15:15.144926019,E4_Acc,2024-06-24 13:42:22.912760019,-26.0,-61.0,-1.0
1904-01-01 00:15:15.176176019,E4_Acc,2024-06-24 13:42:22.944010019,-26.0,-60.0,0.0
1904-01-01 00:15:15.207426019,E4_Acc,2024-06-24 13:42:22.975260019,-25.0,-61.0,0.0
1904-01-01 00:15:15.238676019,E4_Acc,2024-06-24 13:42:23.006510019,-25.0,-61.0,0.0
1904-01-01 00:15:15.269926019,E4_Acc,2024-06-24 13:42:23.037760019,-25.0,-60.0,0.0
1904-01-01 00:15:15.301176019,E4_Acc,2024-06-24 13:42:23.069010019,-25.0,-59.0,0.0
1904-01-01 00:15:15.332426019,E4_Acc,2024-06-24 13:42:23.100260019,-25.0,-58.0,0.0
1904-01-01 00:15:15.363686033,E4_Acc,2024-06-24 13:42:23.131520033,-26.0,-59.0,0.0
1904-01-01 00:15:15.394936033,E4_Acc,2024-06-24 13:42:23.162770033,-25.0,-60.0,0.0
1904-01-01 00:15:15.426186033,E4_Acc,2024-06-24 13:42:23.194020033,-26.0,-60.0,0.0
1904-01-01 00:15:15.457436033,E4_Acc,2024-06-24 13:42:23.225270033,-26.0,-60.0,1.0
1904-01-01 00:15:15.488686032,E4_Acc,2024-06-24 13:42:23.256520032,-26.0,-59.0,0.0
1904-01-01 00:15:15.519936033,E4_Acc,2024-06-24 13:42:23.287770033,-26.0,-59.0,0.0
1904-01-01 00:15:15.551186033,E4_Acc,2024-06-24 13:42:23.319020033,-25.0,-61.0,0.0
1904-01-01 00:15:15.582446046,E4_Acc,2024-06-24 13:42:23.350280046,-24.0,-60.0,0.0
1904-01-01 00:15:15.613696046,E4_Acc,2024-06-24 13:42:23.381530046,-23.0,-61.0,1.0
1904-01-01 00:15:15.644946046,E4_Acc,2024-06-24 13:42:23.412780046,-24.0,-61.0,1.0
1904-01-01 00:15:15.676196046,E4_Acc,2024-06-24 13:42:23.444030046,-23.0,-60.0,0.0
1904-01-01 00:15:15.707446046,E4_Acc,2024-06-24 13:42:23.475280046,-22.0,-60.0,0.0
1904-01-01 00:15:15.738696045,E4_Acc,2024-06-24 13:42:23.506530045,-23.0,-59.0,0.0
1904-01-01 00:15:15.769946046,E4_Acc,2024-06-24 13:42:23.537780046,-23.0,-61.0,0.0
1904-01-01 00:15:15.801206060,E4_Acc,2024-06-24 13:42:23.569040060,-23.0,-62.0,0.0
1904-01-01 00:15:15.832456060,E4_Acc,2024-06-24 13:42:23.600290060,-23.0,-60.0,0.0
1904-01-01 00:15:15.863706060,E4_Acc,2024-06-24 13:42:23.631540060,-23.0,-59.0,0.0
1904-01-01 00:15:15.894956060,E4_Acc,2024-06-24 13:42:23.662790060,-22.0,-59.0,0.0
1904-01-01 00:15:15.926206060,E4_Acc,2024-06-24 13:42:23.694040060,-23.0,-59.0,0.0
1904-01-01 00:15:15.957456060,E4_Acc,2024-06-24 13:42:23.725290060,-24.0,-60.0,-1.0
1904-01-01 00:15:15.988706060,E4_Acc,2024-06-24 13:42:23.756540060,-25.0,-60.0,-1.0
1904-01-01 00:15:16.019966074,E4_Acc,2024-06-24 13:42:23.787800074,-25.0,-61.0,0.0
1904-01-01 00:15:16.051216074,E4_Acc,2024-06-24 13:42:23.819050074,-25.0,-60.0,0.0
1904-01-01 00:15:16.082466074,E4_Acc,2024-06-24 13:42:23.850300074,-24.0,-59.0,1.0
1904-01-01 00:15:16.113716074,E4_Acc,2024-06-24 13:42:23.881550074,-24.0,-60.0,1.0
1904-01-01 00:15:16.144966074,E4_Acc,2024-06-24 13:42:23.912800074,-24.0,-60.0,1.0
1904-01-01 00:15:16.176216074,E4_Acc,2024-06-24 13:42:23.944050074,-24.0,-61.0,1.0
1904-01-01 00:15:16.207466074,E4_Acc,2024-06-24 13:42:23.975300074,-24.0,-61.0,1.0
1904-01-01 00:15:16.238726087,E4_Acc,2024-06-24 13:42:24.006560087,-24.0,-61.0,1.0
1904-01-01 00:15:16.269976087,E4_Acc,2024-06-24 13:42:24.037810087,-23.0,-60.0,1.0
1904-01-01 00:15:16.301226087,E4_Acc,2024-06-24 13:42:24.069060087,-23.0,-60.0,1.0
1904-01-01 00:15:16.332476087,E4_Acc,2024-06-24 13:42:24.100310087,-23.0,-60.0,1.0
1904-01-01 00:15:16.363726086,E4_Acc,2024-06-24 13:42:24.131560086,-23.0,-61.0,1.0
1904-01-01 00:15:16.394976087,E4_Acc,2024-06-24 13:42:24.162810087,-24.0,-60.0,1.0
1904-01-01 00:15:16.426226087,E4_Acc,2024-06-24 13:42:24.194060087,-24.0,-60.0,0.0
1904-01-01 00:15:16.457486101,E4_Acc,2024-06-24 13:42:24.225320101,-24.0,-60.0,0.0
1904-01-01 00:15:16.488736101,E4_Acc,2024-06-24 13:42:24.256570101,-25.0,-60.0,0.0
1904-01-01 00:15:16.519986101,E4_Acc,2024-06-24 13:42:24.287820101,-25.0,-60.0,0.0
1904-01-01 00:15:16.551236101,E4_Acc,2024-06-24 13:42:24.319070101,-25.0,-60.0,1.0
1904-01-01 00:15:16.582486101,E4_Acc,2024-06-24 13:42:24.350320101,-25.0,-59.0,1.0
1904-01-01 00:15:16.613736101,E4_Acc,2024-06-24 13:42:24.381570101,-25.0,-59.0,1.0
1904-01-01 00:15:16.644996114,E4_Acc,2024-06-24 13:42:24.412830114,-25.0,-60.0,1.0
1904-01-01 00:15:16.676246114,E4_Acc,2024-06-24 13:42:24.444080114,-24.0,-61.0,1.0
1904-01-01 00:15:16.707496114,E4_Acc,2024-06-24 13:42:24.475330114,-24.0,-60.0,2.0
1904-01-01 00:15:16.738746114,E4_Acc,2024-06-24 13:42:24.506580114,-23.0,-60.0,1.0
1904-01-01 00:15:16.769996114,E4_Acc,2024-06-24 13:42:24.537830114,-23.0,-59.0,1.0
1904-01-01 00:15:16.801246114,E4_Acc,2024-06-24 13:42:24.569080114,-24.0,-59.0,1.0
1904-01-01 00:15:16.832496114,E4_Acc,2024-06-24 13:42:24.600330114,-24.0,-60.0,1.0
1904-01-01 00:15:16.863755890,E4_Acc,2024-06-24 13:42:24.631589890,-26.0,-61.0,1.0
1904-01-01 00:15:16.895005890,E4_Acc,2024-06-24 13:42:24.662839890,-24.0,-62.0,1.0
1904-01-01 00:15:16.926255890,E4_Acc,2024-06-24 13:42:24.694089890,-24.0,-61.0,2.0
1904-01-01 00:15:16.957505890,E4_Acc,2024-06-24 13:42:24.725339890,-24.0,-60.0,1.0
1904-01-01 00:15:16.988755890,E4_Acc,2024-06-24 13:42:24.756589890,-24.0,-60.0,1.0
1904-01-01 00:15:17.020005890,E4_Acc,2024-06-24 13:42:24.787839890,-22.0,-60.0,2.0
1904-01-01 00:15:17.051255890,E4_Acc,2024-06-24 13:42:24.819089890,-23.0,-61.0,1.0
1904-01-01 00:15:17.082515903,E4_Acc,2024-06-24 13:42:24.850349903,-23.0,-60.0,1.0
1904-01-01 00:15:17.113765903,E4_Acc,2024-06-24 13:42:24.881599903,-23.0,-60.0,1.0
1904-01-01 00:15:17.145015903,E4_Acc,2024-06-24 13:42:24.912849903,-23.0,-60.0,1.0
1904-01-01 00:15:17.176265903,E4_Acc,2024-06-24 13:42:24.944099903,-24.0,-60.0,0.0
1904-01-01 00:15:17.207515903,E4_Acc,2024-06-24 13:42:24.975349903,-25.0,-59.0,0.0
1904-01-01 00:15:17.238765903,E4_Acc,2024-06-24 13:42:25.006599903,-25.0,-60.0,1.0
1904-01-01 00:15:17.270015903,E4_Acc,2024-06-24 13:42:25.037849903,-26.0,-60.0,1.0
1904-01-01 00:15:17.301275917,E4_Acc,2024-06-24 13:42:25.069109917,-26.0,-60.0,1.0
1904-01-01 00:15:17.332525917,E4_Acc,2024-06-24 13:42:25.100359917,-25.0,-60.0,1.0
1904-01-01 00:15:17.363775917,E4_Acc,2024-06-24 13:42:25.131609917,-24.0,-59.0,2.0
1904-01-01 00:15:17.395025917,E4_Acc,2024-06-24 13:42:25.162859917,-24.0,-59.0,2.0
1904-01-01 00:15:17.426275917,E4_Acc,2024-06-24 13:42:25.194109917,-24.0,-60.0,2.0
1904-01-01 00:15:17.457525917,E4_Acc,2024-06-24 13:42:25.225359917,-24.0,-62.0,1.0
1904-01-01 00:15:17.488775917,E4_Acc,2024-06-24 13:42:25.256609917,-23.0,-61.0,1.0
1904-01-01 00:15:17.520035930,E4_Acc,2024-06-24 13:42:25.287869930,-22.0,-60.0,1.0
1904-01-01 00:15:17.551285930,E4_Acc,2024-06-24 13:42:25.319119930,-22.0,-60.0,1.0
1904-01-01 00:15:17.582535930,E4_Acc,2024-06-24 13:42:25.350369930,-23.0,-60.0,0.0
1904-01-01 00:15:17.613785930,E4_Acc,2024-06-24 13:42:25.381619930,-23.0,-61.0,0.0
1904-01-01 00:15:17.645035930,E4_Acc,2024-06-24 13:42:25.412869930,-24.0,-61.0,1.0
1904-01-01 00:15:17.676285930,E4_Acc,2024-06-24 13:42:25.444119930,-24.0,-61.0,1.0
1904-01-01 00:15:17.707535930,E4_Acc,2024-06-24 13:42:25.475369930,-25.0,-60.0,1.0
1904-01-01 00:15:17.738795944,E4_Acc,2024-06-24 13:42:25.506629944,-24.0,-60.0,1.0
1904-01-01 00:15:17.770045944,E4_Acc,2024-06-24 13:42:25.537879944,-24.0,-60.0,2.0
1904-01-01 00:15:17.801295944,E4_Acc,2024-06-24 13:42:25.569129944,-25.0,-60.0,1.0
1904-01-01 00:15:17.832545944,E4_Acc,2024-06-24 13:42:25.600379944,-25.0,-60.0,2.0
1904-01-01 00:15:17.863795944,E4_Acc,2024-06-24 13:42:25.631629944,-25.0,-60.0,1.0
1904-01-01 00:15:17.895045944,E4_Acc,2024-06-24 13:42:25.662879944,-25.0,-60.0,2.0
1904-01-01 00:15:17.926295944,E4_Acc,2024-06-24 13:42:25.694129944,-25.0,-60.0,1.0
1904-01-01 00:15:17.957555957,E4_Acc,2024-06-24 13:42:25.725389957,-24.0,-60.0,1.0
1904-01-01 00:15:17.988805957,E4_Acc,2024-06-24 13:42:25.756639957,-24.0,-59.0,1.0
1904-01-01 00:15:18.020055957,E4_Acc,2024-06-24 13:42:25.787889957,-24.0,-59.0,0.0
1904-01-01 00:15:18.051305957,E4_Acc,2024-06-24 13:42:25.819139957,-24.0,-61.0,0.0
1904-01-01 00:15:18.082555957,E4_Acc,2024-06-24 13:42:25.850389957,-24.0,-62.0,1.0
1904-01-01 00:15:18.113805957,E4_Acc,2024-06-24 13:42:25.881639957,-24.0,-62.0,2.0
1904-01-01 00:15:18.145055957,E4_Acc,2024-06-24 13:42:25.912889957,-23.0,-60.0,2.0
1904-01-01 00:15:18.176315971,E4_Acc,2024-06-24 13:42:25.944149971,-23.0,-58.0,2.0
1904-01-01 00:15:18.207565971,E4_Acc,2024-06-24 13:42:25.975399971,-23.0,-58.0,1.0
1904-01-01 00:15:18.238815971,E4_Acc,2024-06-24 13:42:26.006649971,-25.0,-59.0,1.0
1904-01-01 00:15:18.270065971,E4_Acc,2024-06-24 13:42:26.037899971,-26.0,-60.0,0.0
1904-01-01 00:15:18.301315971,E4_Acc,2024-06-24 13:42:26.069149971,-26.0,-61.0,1.0
1904-01-01 00:15:18.332565971,E4_Acc,2024-06-24 13:42:26.100399971,-26.0,-61.0,1.0
1904-01-01 00:15:18.363815971,E4_Acc,2024-06-24 13:42:26.131649971,-24.0,-59.0,2.0
1904-01-01 00:15:18.395075985,E4_Acc,2024-06-24 13:42:26.162909985,-24.0,-58.0,1.0
1904-01-01 00:15:18.426325985,E4_Acc,2024-06-24 13:42:26.194159985,-24.0,-58.0,1.0
1904-01-01 00:15:18.457575985,E4_Acc,2024-06-24 13:42:26.225409985,-24.0,-60.0,2.0
1904-01-01 00:15:18.488825984,E4_Acc,2024-06-24 13:42:26.256659984,-25.0,-61.0,2.0
1904-01-01 00:15:18.520075985,E4_Acc,2024-06-24 13:42:26.287909985,-25.0,-61.0,2.0
1904-01-01 00:15:18.551325985,E4_Acc,2024-06-24 13:42:26.319159985,-24.0,-60.0,2.0
1904-01-01 00:15:18.582575985,E4_Acc,2024-06-24 13:42:26.350409985,-24.0,-59.0,2.0
1904-01-01 00:15:18.613835998,E4_Acc,2024-06-24 13:42:26.381669998,-24.0,-59.0,1.0
1904-01-01 00:15:18.645085998,E4_Acc,2024-06-24 13:42:26.412919998,-25.0,-60.0,1.0
1904-01-01 00:15:18.676335998,E4_Acc,2024-06-24 13:42:26.444169998,-25.0,-60.0,1.0
1904-01-01 00:15:18.707585998,E4_Acc,2024-06-24 13:42:26.475419998,-25.0,-60.0,1.0
1904-01-01 00:15:18.738835998,E4_Acc,2024-06-24 13:42:26.506669998,-25.0,-60.0,1.0
1904-01-01 00:15:18.770085998,E4_Acc,2024-06-24 13:42:26.537919998,-24.0,-60.0,1.0
1904-01-01 00:15:18.801335998,E4_Acc,2024-06-24 13:42:26.569169998,-24.0,-60.0,1.0
1904-01-01 00:15:18.832596012,E4_Acc,2024-06-24 13:42:26.600430012,-24.0,-61.0,1.0
1904-01-01 00:15:18.863846012,E4_Acc,2024-06-24 13:42:26.631680012,-24.0,-61.0,1.0
1904-01-01 00:15:18.895096012,E4_Acc,2024-06-24 13:42:26.662930012,-23.0,-61.0,1.0
1904-01-01 00:15:18.926346012,E4_Acc,2024-06-24 13:42:26.694180012,-22.0,-61.0,1.0
1904-01-01 00:15:18.957596012,E4_Acc,2024-06-24 13:42:26.725430012,-23.0,-60.0,0.0
1904-01-01 00:15:18.988846012,E4_Acc,2024-06-24 13:42:26.756680012,-23.0,-60.0,0.0
1904-01-01 00:15:19.020106025,E4_Acc,2024-06-24 13:42:26.787940025,-23.0,-61.0,1.0
1904-01-01 00:15:19.051356025,E4_Acc,2024-06-24 13:42:26.819190025,-23.0,-60.0,0.0
1904-01-01 00:15:19.082606025,E4_Acc,2024-06-24 13:42:26.850440025,-25.0,-60.0,0.0
1904-01-01 00:15:19.113856025,E4_Acc,2024-06-24 13:42:26.881690025,-24.0,-61.0,1.0
1904-01-01 00:15:19.145106025,E4_Acc,2024-06-24 13:42:26.912940025,-24.0,-60.0,1.0
1904-01-01 00:15:19.176356025,E4_Acc,2024-06-24 13:42:26.944190025,-25.0,-60.0,0.0
1904-01-01 00:15:19.207606025,E4_Acc,2024-06-24 13:42:26.975440025,-25.0,-59.0,0.0
1904-01-01 00:15:19.238866039,E4_Acc,2024-06-24 13:42:27.006700039,-25.0,-59.0,0.0
1904-01-01 00:15:19.270116039,E4_Acc,2024-06-24 13:42:27.037950039,-26.0,-60.0,0.0
1904-01-01 00:15:19.301366039,E4_Acc,2024-06-24 13:42:27.069200039,-25.0,-60.0,0.0
1904-01-01 00:15:19.332616039,E4_Acc,2024-06-24 13:42:27.100450039,-25.0,-61.0,1.0
1904-01-01 00:15:19.363866038,E4_Acc,2024-06-24 13:42:27.131700038,-25.0,-60.0,1.0
1904-01-01 00:15:19.395116039,E4_Acc,2024-06-24 13:42:27.162950039,-24.0,-61.0,1.0
1904-01-01 00:15:19.426366039,E4_Acc,2024-06-24 13:42:27.194200039,-24.0,-61.0,1.0
1904-01-01 00:15:19.457626052,E4_Acc,2024-06-24 13:42:27.225460052,-24.0,-61.0,1.0
1904-01-01 00:15:19.488876052,E4_Acc,2024-06-24 13:42:27.256710052,-23.0,-60.0,2.0
1904-01-01 00:15:19.520126052,E4_Acc,2024-06-24 13:42:27.287960052,-23.0,-61.0,2.0
1904-01-01 00:15:19.551376052,E4_Acc,2024-06-24 13:42:27.319210052,-24.0,-61.0,1.0
1904-01-01 00:15:19.582626052,E4_Acc,2024-06-24 13:42:27.350460052,-24.0,-61.0,1.0
1904-01-01 00:15:19.613876052,E4_Acc,2024-06-24 13:42:27.381710052,-24.0,-60.0,1.0
1904-01-01 00:15:19.645126052,E4_Acc,2024-06-24 13:42:27.412960052,-24.0,-59.0,0.0
1904-01-01 00:15:19.676386066,E4_Acc,2024-06-24 13:42:27.444220066,-24.0,-60.0,0.0
1904-01-01 00:15:19.707636066,E4_Acc,2024-06-24 13:42:27.475470066,-24.0,-60.0,0.0
1904-01-01 00:15:19.738886065,E4_Acc,2024-06-24 13:42:27.506720065,-24.0,-60.0,0.0
1904-01-01 00:15:19.770136066,E4_Acc,2024-06-24 13:42:27.537970066,-24.0,-60.0,0.0
1904-01-01 00:15:19.801386066,E4_Acc,2024-06-24 13:42:27.569220066,-23.0,-60.0,1.0
1904-01-01 00:15:19.832636066,E4_Acc,2024-06-24 13:42:27.600470066,-24.0,-60.0,1.0
1904-01-01 00:15:19.863886066,E4_Acc,2024-06-24 13:42:27.631720066,-23.0,-61.0,1.0
1904-01-01 00:15:19.895146080,E4_Acc,2024-06-24 13:42:27.662980080,-23.0,-60.0,1.0
1904-01-01 00:15:19.926396080,E4_Acc,2024-06-24 13:42:27.694230080,-23.0,-60.0,1.0
1904-01-01 00:15:19.957646080,E4_Acc,2024-06-24 13:42:27.725480080,-24.0,-60.0,1.0
1904-01-01 00:15:19.988896080,E4_Acc,2024-06-24 13:42:27.756730080,-24.0,-60.0,1.0
1904-01-01 00:15:20.020146080,E4_Acc,2024-06-24 13:42:27.787980080,-24.0,-60.0,1.0
1904-01-01 00:15:20.051396080,E4_Acc,2024-06-24 13:42:27.819230080,-24.0,-60.0,1.0
1904-01-01 00:15:20.082646080,E4_Acc,2024-06-24 13:42:27.850480080,-24.0,-60.0,1.0
1904-01-01 00:15:20.113906093,E4_Acc,2024-06-24 13:42:27.881740093,-24.0,-60.0,1.0
1904-01-01 00:15:20.145156093,E4_Acc,2024-06-24 13:42:27.912990093,-25.0,-60.0,1.0
1904-01-01 00:15:20.176406093,E4_Acc,2024-06-24 13:42:27.944240093,-24.0,-60.0,1.0
1904-01-01 00:15:20.207656093,E4_Acc,2024-06-24 13:42:27.975490093,-25.0,-60.0,1.0
1904-01-01 00:15:20.238906093,E4_Acc,2024-06-24 13:42:28.006740093,-25.0,-59.0,1.0
1904-01-01 00:15:20.270156093,E4_Acc,2024-06-24 13:42:28.037990093,-25.0,-59.0,1.0
1904-01-01 00:15:20.301406093,E4_Acc,2024-06-24 13:42:28.069240093,-25.0,-60.0,0.0
1904-01-01 00:15:20.332666107,E4_Acc,2024-06-24 13:42:28.100500107,-25.0,-59.0,0.0
1904-01-01 00:15:20.363916107,E4_Acc,2024-06-24 13:42:28.131750107,-25.0,-60.0,0.0
1904-01-01 00:15:20.395166107,E4_Acc,2024-06-24 13:42:28.163000107,-26.0,-60.0,0.0
1904-01-01 00:15:20.426416107,E4_Acc,2024-06-24 13:42:28.194250107,-26.0,-60.0,0.0
1904-01-01 00:15:20.457666107,E4_Acc,2024-06-24 13:42:28.225500107,-25.0,-59.0,0.0
1904-01-01 00:15:20.488916107,E4_Acc,2024-06-24 13:42:28.256750107,-24.0,-59.0,0.0
1904-01-01 00:15:20.520166107,E4_Acc,2024-06-24 13:42:28.288000107,-25.0,-60.0,0.0
1904-01-01 00:15:20.551425882,E4_Acc,2024-06-24 13:42:28.319259882,-24.0,-60.0,0.0
1904-01-01 00:15:20.582675882,E4_Acc,2024-06-24 13:42:28.350509882,-24.0,-60.0,0.0
1904-01-01 00:15:20.613925882,E4_Acc,2024-06-24 13:42:28.381759882,-24.0,-60.0,0.0
1904-01-01 00:15:20.645175882,E4_Acc,2024-06-24 13:42:28.413009882,-24.0,-60.0,0.0
1904-01-01 00:15:20.676425882,E4_Acc,2024-06-24 13:42:28.444259882,-25.0,-60.0,0.0
1904-01-01 00:15:20.707675882,E4_Acc,2024-06-24 13:42:28.475509882,-25.0,-60.0,0.0
1904-01-01 00:15:20.738925882,E4_Acc,2024-06-24 13:42:28.506759882,-25.0,-60.0,0.0
1904-01-01 00:15:20.770185896,E4_Acc,2024-06-24 13:42:28.538019896,-25.0,-60.0,0.0
1904-01-01 00:15:20.801435896,E4_Acc,2024-06-24 13:42:28.569269896,-24.0,-60.0,0.0
1904-01-01 00:15:20.832685896,E4_Acc,2024-06-24 13:42:28.600519896,-24.0,-61.0,0.0
1904-01-01 00:15:20.863935896,E4_Acc,2024-06-24 13:42:28.631769896,-24.0,-60.0,0.0
1904-01-01 00:15:20.895185896,E4_Acc,2024-06-24 13:42:28.663019896,-23.0,-60.0,0.0
1904-01-01 00:15:20.926435896,E4_Acc,2024-06-24 13:42:28.694269896,-23.0,-60.0,0.0
1904-01-01 00:15:20.957685896,E4_Acc,2024-06-24 13:42:28.725519896,-23.0,-61.0,-1.0
1904-01-01 00:15:20.988945909,E4_Acc,2024-06-24 13:42:28.756779909,-23.0,-61.0,-1.0
1904-01-01 00:15:21.020195909,E4_Acc,2024-06-24 13:42:28.788029909,-23.0,-60.0,-1.0
1904-01-01 00:15:21.051445909,E4_Acc,2024-06-24 13:42:28.819279909,-23.0,-60.0,-1.0
1904-01-01 00:15:21.082695909,E4_Acc,2024-06-24 13:42:28.850529909,-24.0,-60.0,-1.0
1904-01-01 00:15:21.113945909,E4_Acc,2024-06-24 13:42:28.881779909,-24.0,-60.0,-1.0
1904-01-01 00:15:21.145195909,E4_Acc,2024-06-24 13:42:28.913029909,-24.0,-60.0,-1.0
1904-01-01 00:15:21.176445909,E4_Acc,2024-06-24 13:42:28.944279909,-24.0,-60.0,-1.0
1904-01-01 00:15:21.207705923,E4_Acc,2024-06-24 13:42:28.975539923,-25.0,-60.0,0.0
1904-01-01 00:15:21.238955923,E4_Acc,2024-06-24 13:42:29.006789923,-25.0,-60.0,0.0
1904-01-01 00:15:21.270205923,E4_Acc,2024-06-24 13:42:29.038039923,-25.0,-60.0,0.0
1904-01-01 00:15:21.301455923,E4_Acc,2024-06-24 13:42:29.069289923,-25.0,-60.0,0.0
1904-01-01 00:15:21.332705923,E4_Acc,2024-06-24 13:42:29.100539923,-25.0,-60.0,0.0
1904-01-01 00:15:21.363955923,E4_Acc,2024-06-24 13:42:29.131789923,-25.0,-60.0,1.0
1904-01-01 00:15:21.395205923,E4_Acc,2024-06-24 13:42:29.163039923,-25.0,-60.0,0.0
1904-01-01 00:15:21.426465936,E4_Acc,2024-06-24 13:42:29.194299936,-25.0,-61.0,0.0
1904-01-01 00:15:21.457715936,E4_Acc,2024-06-24 13:42:29.225549936,-24.0,-60.0,1.0
1904-01-01 00:15:21.488965936,E4_Acc,2024-06-24 13:42:29.256799936,-24.0,-60.0,0.0
1904-01-01 00:15:21.520215936,E4_Acc,2024-06-24 13:42:29.288049936,-24.0,-60.0,0.0
1904-01-01 00:15:21.551465936,E4_Acc,2024-06-24 13:42:29.319299936,-24.0,-60.0,0.0
1904-01-01 00:15:21.582715936,E4_Acc,2024-06-24 13:42:29.350549936,-24.0,-60.0,0.0
1904-01-01 00:15:21.613975950,E4_Acc,2024-06-24 13:42:29.381809950,-24.0,-59.0,0.0
1904-01-01 00:15:21.645225950,E4_Acc,2024-06-24 13:42:29.413059950,-24.0,-59.0,-1.0
1904-01-01 00:15:21.676475950,E4_Acc,2024-06-24 13:42:29.444309950,-24.0,-59.0,-1.0
1904-01-01 00:15:21.707725950,E4_Acc,2024-06-24 13:42:29.475559950,-25.0,-60.0,0.0
1904-01-01 00:15:21.738975949,E4_Acc,2024-06-24 13:42:29.506809949,-25.0,-60.0,0.0
1904-01-01 00:15:21.770225950,E4_Acc,2024-06-24 13:42:29.538059950,-25.0,-59.0,0.0
1904-01-01 00:15:21.801475950,E4_Acc,2024-06-24 13:42:29.569309950,-25.0,-58.0,0.0
1904-01-01 00:15:21.832735963,E4_Acc,2024-06-24 13:42:29.600569963,-24.0,-58.0,0.0
1904-01-01 00:15:21.863985963,E4_Acc,2024-06-24 13:42:29.631819963,-24.0,-60.0,0.0
1904-01-01 00:15:21.895235963,E4_Acc,2024-06-24 13:42:29.663069963,-25.0,-61.0,-1.0
1904-01-01 00:15:21.926485963,E4_Acc,2024-06-24 13:42:29.694319963,-25.0,-61.0,-1.0
1904-01-01 00:15:21.957735963,E4_Acc,2024-06-24 13:42:29.725569963,-23.0,-59.0,-1.0
1904-01-01 00:15:21.988985963,E4_Acc,2024-06-24 13:42:29.756819963,-23.0,-59.0,-1.0
1904-01-01 00:15:22.020235963,E4_Acc,2024-06-24 13:42:29.788069963,-24.0,-60.0,-2.0
1904-01-01 00:15:22.051495977,E4_Acc,2024-06-24 13:42:29.819329977,-24.0,-61.0,-2.0
1904-01-01 00:15:22.082745977,E4_Acc,2024-06-24 13:42:29.850579977,-24.0,-62.0,-2.0
1904-01-01 00:15:22.113995977,E4_Acc,2024-06-24 13:42:29.881829977,-23.0,-62.0,-2.0
1904-01-01 00:15:22.145245977,E4_Acc,2024-06-24 13:42:29.913079977,-22.0,-62.0,-2.0
1904-01-01 00:15:22.176495977,E4_Acc,2024-06-24 13:42:29.944329977,-22.0,-62.0,-2.0
1904-01-01 00:15:22.207745977,E4_Acc,2024-06-24 13:42:29.975579977,-22.0,-63.0,-2.0
1904-01-01 00:15:22.238995977,E4_Acc,2024-06-24 13:42:30.006829977,-22.0,-63.0,-2.0
1904-01-01 00:15:22.270255991,E4_Acc,2024-06-24 13:42:30.038089991,-22.0,-63.0,-2.0
1904-01-01 00:15:22.301505991,E4_Acc,2024-06-24 13:42:30.069339991,-22.0,-63.0,-2.0
1904-01-01 00:15:22.332755991,E4_Acc,2024-06-24 13:42:30.100589991,-21.0,-62.0,-2.0
1904-01-01 00:15:22.364005990,E4_Acc,2024-06-24 13:42:30.131839990,-21.0,-58.0,-2.0
1904-01-01 00:15:22.395255991,E4_Acc,2024-06-24 13:42:30.163089991,-22.0,-57.0,-3.0
1904-01-01 00:15:22.426505991,E4_Acc,2024-06-24 13:42:30.194339991,-23.0,-57.0,-3.0
1904-01-01 00:15:22.457755991,E4_Acc,2024-06-24 13:42:30.225589991,-24.0,-57.0,-3.0
1904-01-01 00:15:22.489016004,E4_Acc,2024-06-24 13:42:30.256850004,-26.0,-60.0,-4.0
1904-01-01 00:15:22.520266004,E4_Acc,2024-06-24 13:42:30.288100004,-27.0,-61.0,-4.0
1904-01-01 00:15:22.551516004,E4_Acc,2024-06-24 13:42:30.319350004,-28.0,-61.0,-5.0
1904-01-01 00:15:22.582766004,E4_Acc,2024-06-24 13:42:30.350600004,-30.0,-62.0,-3.0
1904-01-01 00:15:22.614016004,E4_Acc,2024-06-24 13:42:30.381850004,-30.0,-61.0,-3.0
1904-01-01 00:15:22.645266004,E4_Acc,2024-06-24 13:42:30.413100004,-27.0,-57.0,-1.0
1904-01-01 00:15:22.676516004,E4_Acc,2024-06-24 13:42:30.444350004,-25.0,-59.0,1.0
1904-01-01 00:15:22.707776018,E4_Acc,2024-06-24 13:42:30.475610018,-24.0,-61.0,1.0
1904-01-01 00:15:22.739026018,E4_Acc,2024-06-24 13:42:30.506860018,-22.0,-64.0,2.0
1904-01-01 00:15:22.770276018,E4_Acc,2024-06-24 13:42:30.538110018,-23.0,-65.0,1.0
1904-01-01 00:15:22.801526018,E4_Acc,2024-06-24 13:42:30.569360018,-22.0,-64.0,1.0
1904-01-01 00:15:22.832776018,E4_Acc,2024-06-24 13:42:30.600610018,-20.0,-62.0,2.0
1904-01-01 00:15:22.864026018,E4_Acc,2024-06-24 13:42:30.631860018,-20.0,-61.0,2.0
1904-01-01 00:15:22.895276018,E4_Acc,2024-06-24 13:42:30.663110018,-21.0,-60.0,3.0
1904-01-01 00:15:22.926536031,E4_Acc,2024-06-24 13:42:30.694370031,-20.0,-61.0,3.0
1904-01-01 00:15:22.957786031,E4_Acc,2024-06-24 13:42:30.725620031,-19.0,-62.0,3.0
1904-01-01 00:15:22.989036031,E4_Acc,2024-06-24 13:42:30.756870031,-22.0,-66.0,5.0
1904-01-01 00:15:23.020286031,E4_Acc,2024-06-24 13:42:30.788120031,-23.0,-66.0,6.0
1904-01-01 00:15:23.051536031,E4_Acc,2024-06-24 13:42:30.819370031,-22.0,-60.0,7.0
1904-01-01 00:15:23.082786031,E4_Acc,2024-06-24 13:42:30.850620031,-24.0,-54.0,6.0
1904-01-01 00:15:23.114036031,E4_Acc,2024-06-24 13:42:30.881870031,-25.0,-54.0,6.0
1904-01-01 00:15:23.145296045,E4_Acc,2024-06-24 13:42:30.913130045,-25.0,-56.0,6.0
1904-01-01 00:15:23.176546045,E4_Acc,2024-06-24 13:42:30.944380045,-25.0,-58.0,6.0
1904-01-01 00:15:23.207796045,E4_Acc,2024-06-24 13:42:30.975630045,-27.0,-61.0,6.0
1904-01-01 00:15:23.239046045,E4_Acc,2024-06-24 13:42:31.006880045,-26.0,-60.0,4.0
1904-01-01 00:15:23.270296045,E4_Acc,2024-06-24 13:42:31.038130045,-25.0,-59.0,4.0
1904-01-01 00:15:23.301546045,E4_Acc,2024-06-24 13:42:31.069380045,-25.0,-58.0,4.0
1904-01-01 00:15:23.332796045,E4_Acc,2024-06-24 13:42:31.100630045,-25.0,-58.0,4.0
1904-01-01 00:15:23.364056059,E4_Acc,2024-06-24 13:42:31.131890059,-25.0,-59.0,4.0
1904-01-01 00:15:23.395306059,E4_Acc,2024-06-24 13:42:31.163140059,-24.0,-59.0,4.0
1904-01-01 00:15:23.426556059,E4_Acc,2024-06-24 13:42:31.194390059,-24.0,-58.0,4.0
1904-01-01 00:15:23.457806059,E4_Acc,2024-06-24 13:42:31.225640059,-26.0,-59.0,4.0
1904-01-01 00:15:23.489056059,E4_Acc,2024-06-24 13:42:31.256890059,-26.0,-59.0,4.0
1904-01-01 00:15:23.520306059,E4_Acc,2024-06-24 13:42:31.288140059,-25.0,-59.0,4.0
1904-01-01 00:15:23.551556059,E4_Acc,2024-06-24 13:42:31.319390059,-26.0,-59.0,4.0
1904-01-01 00:15:23.582816072,E4_Acc,2024-06-24 13:42:31.350650072,-26.0,-59.0,4.0
1904-01-01 00:15:23.614066072,E4_Acc,2024-06-24 13:42:31.381900072,-26.0,-59.0,4.0
1904-01-01 00:15:23.645316072,E4_Acc,2024-06-24 13:42:31.413150072,-26.0,-59.0,4.0
1904-01-01 00:15:23.676566072,E4_Acc,2024-06-24 13:42:31.444400072,-26.0,-59.0,4.0
1904-01-01 00:15:23.707816072,E4_Acc,2024-06-24 13:42:31.475650072,-26.0,-59.0,3.0
1904-01-01 00:15:23.739066072,E4_Acc,2024-06-24 13:42:31.506900072,-26.0,-60.0,3.0
1904-01-01 00:15:23.770316072,E4_Acc,2024-06-24 13:42:31.538150072,-26.0,-60.0,3.0
1904-01-01 00:15:23.801576086,E4_Acc,2024-06-24 13:42:31.569410086,-26.0,-60.0,3.0
1904-01-01 00:15:23.832826086,E4_Acc,2024-06-24 13:42:31.600660086,-25.0,-59.0,3.0
1904-01-01 00:15:23.864076086,E4_Acc,2024-06-24 13:42:31.631910086,-25.0,-59.0,3.0
1904-01-01 00:15:23.895326086,E4_Acc,2024-06-24 13:42:31.663160086,-25.0,-59.0,3.0
1904-01-01 00:15:23.926576086,E4_Acc,2024-06-24 13:42:31.694410086,-25.0,-60.0,3.0
1904-01-01 00:15:23.957826086,E4_Acc,2024-06-24 13:42:31.725660086,-25.0,-61.0,3.0
1904-01-01 00:15:23.989086099,E4_Acc,2024-06-24 13:42:31.756920099,-25.0,-60.0,3.0
1904-01-01 00:15:24.020336099,E4_Acc,2024-06-24 13:42:31.788170099,-25.0,-60.0,3.0
1904-01-01 00:15:24.051586099,E4_Acc,2024-06-24 13:42:31.819420099,-25.0,-60.0,3.0
1904-01-01 00:15:24.082836099,E4_Acc,2024-06-24 13:42:31.850670099,-25.0,-61.0,3.0
1904-01-01 00:15:24.114086099,E4_Acc,2024-06-24 13:42:31.881920099,-24.0,-61.0,3.0
1904-01-01 00:15:24.145336099,E4_Acc,2024-06-24 13:42:31.913170099,-25.0,-61.0,3.0
1904-01-01 00:15:24.176586099,E4_Acc,2024-06-24 13:42:31.944420099,-25.0,-60.0,3.0
1904-01-01 00:15:24.207846113,E4_Acc,2024-06-24 13:42:31.975680113,-25.0,-60.0,2.0
1904-01-01 00:15:24.239096113,E4_Acc,2024-06-24 13:42:32.006930113,-25.0,-59.0,3.0
1904-01-01 00:15:24.270346113,E4_Acc,2024-06-24 13:42:32.038180113,-26.0,-59.0,2.0
1904-01-01 00:15:24.301596113,E4_Acc,2024-06-24 13:42:32.069430113,-26.0,-59.0,2.0
1904-01-01 00:15:24.332846113,E4_Acc,2024-06-24 13:42:32.100680113,-25.0,-59.0,3.0
1904-01-01 00:15:24.364096112,E4_Acc,2024-06-24 13:42:32.131930112,-25.0,-60.0,3.0
1904-01-01 00:15:24.395346113,E4_Acc,2024-06-24 13:42:32.163180113,-25.0,-60.0,2.0
1904-01-01 00:15:24.426605888,E4_Acc,2024-06-24 13:42:32.194439888,-25.0,-59.0,2.0
1904-01-01 00:15:24.457855888,E4_Acc,2024-06-24 13:42:32.225689888,-25.0,-59.0,2.0
1904-01-01 00:15:24.489105888,E4_Acc,2024-06-24 13:42:32.256939888,-25.0,-60.0,2.0
1904-01-01 00:15:24.520355888,E4_Acc,2024-06-24 13:42:32.288189888,-24.0,-60.0,3.0
1904-01-01 00:15:24.551605888,E4_Acc,2024-06-24 13:42:32.319439888,-24.0,-59.0,2.0
1904-01-01 00:15:24.582855888,E4_Acc,2024-06-24 13:42:32.350689888,-24.0,-59.0,3.0
1904-01-01 00:15:24.614105888,E4_Acc,2024-06-24 13:42:32.381939888,-24.0,-59.0,2.0
1904-01-01 00:15:24.645365902,E4_Acc,2024-06-24 13:42:32.413199902,-25.0,-60.0,3.0
1904-01-01 00:15:24.676615902,E4_Acc,2024-06-24 13:42:32.444449902,-25.0,-60.0,3.0
1904-01-01 00:15:24.707865902,E4_Acc,2024-06-24 13:42:32.475699902,-26.0,-59.0,3.0
1904-01-01 00:15:24.739115902,E4_Acc,2024-06-24 13:42:32.506949902,-26.0,-59.0,3.0
1904-01-01 00:15:24.770365902,E4_Acc,2024-06-24 13:42:32.538199902,-25.0,-58.0,3.0
1904-01-01 00:15:24.801615902,E4_Acc,2024-06-24 13:42:32.569449902,-26.0,-59.0,3.0
1904-01-01 00:15:24.832865902,E4_Acc,2024-06-24 13:42:32.600699902,-26.0,-59.0,3.0
1904-01-01 00:15:24.864125915,E4_Acc,2024-06-24 13:42:32.631959915,-25.0,-60.0,3.0
1904-01-01 00:15:24.895375915,E4_Acc,2024-06-24 13:42:32.663209915,-25.0,-59.0,3.0
1904-01-01 00:15:24.926625915,E4_Acc,2024-06-24 13:42:32.694459915,-26.0,-59.0,3.0
1904-01-01 00:15:24.957875915,E4_Acc,2024-06-24 13:42:32.725709915,-26.0,-59.0,3.0
1904-01-01 00:15:24.989125915,E4_Acc,2024-06-24 13:42:32.756959915,-26.0,-60.0,3.0
1904-01-01 00:15:25.020375915,E4_Acc,2024-06-24 13:42:32.788209915,-26.0,-60.0,3.0
1904-01-01 00:15:25.051625915,E4_Acc,2024-06-24 13:42:32.819459915,-25.0,-60.0,3.0
1904-01-01 00:15:25.082885929,E4_Acc,2024-06-24 13:42:32.850719929,-25.0,-59.0,3.0
1904-01-01 00:15:25.114135929,E4_Acc,2024-06-24 13:42:32.881969929,-26.0,-59.0,2.0
1904-01-01 00:15:25.145385929,E4_Acc,2024-06-24 13:42:32.913219929,-26.0,-60.0,2.0
1904-01-01 00:15:25.176635929,E4_Acc,2024-06-24 13:42:32.944469929,-26.0,-60.0,3.0
1904-01-01 00:15:25.207885929,E4_Acc,2024-06-24 13:42:32.975719929,-25.0,-60.0,3.0
1904-01-01 00:15:25.239135929,E4_Acc,2024-06-24 13:42:33.006969929,-25.0,-60.0,3.0
1904-01-01 00:15:25.270385929,E4_Acc,2024-06-24 13:42:33.038219929,-25.0,-60.0,3.0
1904-01-01 00:15:25.301645942,E4_Acc,2024-06-24 13:42:33.069479942,-25.0,-60.0,2.0
1904-01-01 00:15:25.332895942,E4_Acc,2024-06-24 13:42:33.100729942,-25.0,-61.0,3.0
1904-01-01 00:15:25.364145941,E4_Acc,2024-06-24 13:42:33.131979941,-25.0,-60.0,3.0
1904-01-01 00:15:25.395395942,E4_Acc,2024-06-24 13:42:33.163229942,-24.0,-60.0,3.0
1904-01-01 00:15:25.426645942,E4_Acc,2024-06-24 13:42:33.194479942,-24.0,-60.0,3.0
1904-01-01 00:15:25.457895942,E4_Acc,2024-06-24 13:42:33.225729942,-24.0,-60.0,3.0
1904-01-01 00:15:25.489145942,E4_Acc,2024-06-24 13:42:33.256979942,-24.0,-60.0,2.0
1904-01-01 00:15:25.520405956,E4_Acc,2024-06-24 13:42:33.288239956,-24.0,-60.0,2.0
1904-01-01 00:15:25.551655956,E4_Acc,2024-06-24 13:42:33.319489956,-24.0,-60.0,2.0
1904-01-01 00:15:25.582905956,E4_Acc,2024-06-24 13:42:33.350739956,-24.0,-59.0,2.0
1904-01-01 00:15:25.614155956,E4_Acc,2024-06-24 13:42:33.381989956,-25.0,-60.0,2.0
1904-01-01 00:15:25.645405956,E4_Acc,2024-06-24 13:42:33.413239956,-25.0,-59.0,2.0
1904-01-01 00:15:25.676655956,E4_Acc,2024-06-24 13:42:33.444489956,-25.0,-59.0,2.0
1904-01-01 00:15:25.707905956,E4_Acc,2024-06-24 13:42:33.475739956,-25.0,-59.0,2.0
1904-01-01 00:15:25.739165969,E4_Acc,2024-06-24 13:42:33.506999969,-25.0,-59.0,2.0
1904-01-01 00:15:25.770415969,E4_Acc,2024-06-24 13:42:33.538249969,-26.0,-60.0,1.0
1904-01-01 00:15:25.801665969,E4_Acc,2024-06-24 13:42:33.569499969,-26.0,-60.0,2.0
1904-01-01 00:15:25.832915969,E4_Acc,2024-06-24 13:42:33.600749969,-25.0,-60.0,2.0
1904-01-01 00:15:25.864165969,E4_Acc,2024-06-24 13:42:33.631999969,-24.0,-60.0,2.0
1904-01-01 00:15:25.895415969,E4_Acc,2024-06-24 13:42:33.663249969,-24.0,-59.0,2.0
1904-01-01 00:15:25.926665969,E4_Acc,2024-06-24 13:42:33.694499969,-24.0,-60.0,2.0
1904-01-01 00:15:25.957925983,E4_Acc,2024-06-24 13:42:33.725759983,-24.0,-60.0,2.0
1904-01-01 00:15:25.989175983,E4_Acc,2024-06-24 13:42:33.757009983,-24.0,-60.0,1.0
1904-01-01 00:15:26.020425983,E4_Acc,2024-06-24 13:42:33.788259983,-24.0,-60.0,1.0
1904-01-01 00:15:26.051675983,E4_Acc,2024-06-24 13:42:33.819509983,-24.0,-60.0,1.0
1904-01-01 00:15:26.082925983,E4_Acc,2024-06-24 13:42:33.850759983,-25.0,-60.0,1.0
1904-01-01 00:15:26.114175983,E4_Acc,2024-06-24 13:42:33.882009983,-25.0,-60.0,1.0
1904-01-01 00:15:26.145425983,E4_Acc,2024-06-24 13:42:33.913259983,-25.0,-60.0,1.0
1904-01-01 00:15:26.176685997,E4_Acc,2024-06-24 13:42:33.944519997,-25.0,-59.0,2.0
1904-01-01 00:15:26.207935997,E4_Acc,2024-06-24 13:42:33.975769997,-25.0,-60.0,2.0
1904-01-01 00:15:26.239185997,E4_Acc,2024-06-24 13:42:34.007019997,-25.0,-60.0,2.0
1904-01-01 00:15:26.270435997,E4_Acc,2024-06-24 13:42:34.038269997,-25.0,-60.0,2.0
1904-01-01 00:15:26.301685997,E4_Acc,2024-06-24 13:42:34.069519997,-25.0,-60.0,2.0
1904-01-01 00:15:26.332935997,E4_Acc,2024-06-24 13:42:34.100769997,-25.0,-59.0,2.0
1904-01-01 00:15:26.364196010,E4_Acc,2024-06-24 13:42:34.132030010,-25.0,-60.0,2.0
1904-01-01 00:15:26.395446010,E4_Acc,2024-06-24 13:42:34.163280010,-25.0,-60.0,2.0
1904-01-01 00:15:26.426696010,E4_Acc,2024-06-24 13:42:34.194530010,-25.0,-60.0,2.0
1904-01-01 00:15:26.457946010,E4_Acc,2024-06-24 13:42:34.225780010,-26.0,-60.0,2.0
1904-01-01 00:15:26.489196009,E4_Acc,2024-06-24 13:42:34.257030009,-26.0,-60.0,2.0
1904-01-01 00:15:26.520446010,E4_Acc,2024-06-24 13:42:34.288280010,-25.0,-60.0,2.0
1904-01-01 00:15:26.551696010,E4_Acc,2024-06-24 13:42:34.319530010,-25.0,-59.0,2.0
1904-01-01 00:15:26.582956024,E4_Acc,2024-06-24 13:42:34.350790024,-25.0,-59.0,1.0
1904-01-01 00:15:26.614206024,E4_Acc,2024-06-24 13:42:34.382040024,-25.0,-59.0,1.0
1904-01-01 00:15:26.645456024,E4_Acc,2024-06-24 13:42:34.413290024,-25.0,-60.0,1.0
1904-01-01 00:15:26.676706024,E4_Acc,2024-06-24 13:42:34.444540024,-26.0,-60.0,1.0
1904-01-01 00:15:26.707956024,E4_Acc,2024-06-24 13:42:34.475790024,-25.0,-59.0,1.0
1904-01-01 00:15:26.739206024,E4_Acc,2024-06-24 13:42:34.507040024,-25.0,-59.0,1.0
1904-01-01 00:15:26.770456024,E4_Acc,2024-06-24 13:42:34.538290024,-26.0,-59.0,1.0
1904-01-01 00:15:26.801716037,E4_Acc,2024-06-24 13:42:34.569550037,-26.0,-59.0,2.0
1904-01-01 00:15:26.832966037,E4_Acc,2024-06-24 13:42:34.600800037,-25.0,-60.0,2.0
1904-01-01 00:15:26.864216037,E4_Acc,2024-06-24 13:42:34.632050037,-25.0,-59.0,2.0
1904-01-01 00:15:26.895466037,E4_Acc,2024-06-24 13:42:34.663300037,-25.0,-59.0,2.0
1904-01-01 00:15:26.926716037,E4_Acc,2024-06-24 13:42:34.694550037,-26.0,-60.0,2.0
1904-01-01 00:15:26.957966037,E4_Acc,2024-06-24 13:42:34.725800037,-25.0,-60.0,2.0
1904-01-01 00:15:26.989216037,E4_Acc,2024-06-24 13:42:34.757050037,-25.0,-59.0,2.0
1904-01-01 00:15:27.020476051,E4_Acc,2024-06-24 13:42:34.788310051,-25.0,-60.0,2.0
1904-01-01 00:15:27.051726051,E4_Acc,2024-06-24 13:42:34.819560051,-25.0,-60.0,1.0
1904-01-01 00:15:27.082976051,E4_Acc,2024-06-24 13:42:34.850810051,-25.0,-59.0,1.0
1904-01-01 00:15:27.114226051,E4_Acc,2024-06-24 13:42:34.882060051,-25.0,-60.0,2.0
1904-01-01 00:15:27.145476051,E4_Acc,2024-06-24 13:42:34.913310051,-25.0,-60.0,2.0
1904-01-01 00:15:27.176726051,E4_Acc,2024-06-24 13:42:34.944560051,-25.0,-60.0,1.0
1904-01-01 00:15:27.207976051,E4_Acc,2024-06-24 13:42:34.975810051,-26.0,-60.0,1.0
1904-01-01 00:15:27.239236065,E4_Acc,2024-06-24 13:42:35.007070065,-25.0,-60.0,1.0
1904-01-01 00:15:27.270486065,E4_Acc,2024-06-24 13:42:35.038320065,-25.0,-60.0,2.0
1904-01-01 00:15:27.301736065,E4_Acc,2024-06-24 13:42:35.069570065,-25.0,-60.0,2.0
1904-01-01 00:15:27.332986065,E4_Acc,2024-06-24 13:42:35.100820065,-25.0,-60.0,2.0
1904-01-01 00:15:27.364236064,E4_Acc,2024-06-24 13:42:35.132070064,-25.0,-60.0,2.0
1904-01-01 00:15:27.395486065,E4_Acc,2024-06-24 13:42:35.163320065,-25.0,-60.0,2.0
1904-01-01 00:15:27.426736065,E4_Acc,2024-06-24 13:42:35.194570065,-25.0,-60.0,2.0
1904-01-01 00:15:27.457996078,E4_Acc,2024-06-24 13:42:35.225830078,-25.0,-60.0,2.0
1904-01-01 00:15:27.489246078,E4_Acc,2024-06-24 13:42:35.257080078,-25.0,-59.0,3.0
1904-01-01 00:15:27.520496078,E4_Acc,2024-06-24 13:42:35.288330078,-25.0,-60.0,2.0
1904-01-01 00:15:27.551746078,E4_Acc,2024-06-24 13:42:35.319580078,-25.0,-60.0,2.0
1904-01-01 00:15:27.582996078,E4_Acc,2024-06-24 13:42:35.350830078,-25.0,-59.0,2.0
1904-01-01 00:15:27.614246078,E4_Acc,2024-06-24 13:42:35.382080078,-25.0,-59.0,2.0
1904-01-01 00:15:27.645496078,E4_Acc,2024-06-24 13:42:35.413330078,-25.0,-59.0,2.0
1904-01-01 00:15:27.676756092,E4_Acc,2024-06-24 13:42:35.444590092,-25.0,-59.0,2.0
1904-01-01 00:15:27.708006092,E4_Acc,2024-06-24 13:42:35.475840092,-25.0,-60.0,2.0
1904-01-01 00:15:27.739256092,E4_Acc,2024-06-24 13:42:35.507090092,-25.0,-59.0,2.0
1904-01-01 00:15:27.770506092,E4_Acc,2024-06-24 13:42:35.538340092,-26.0,-59.0,3.0
1904-01-01 00:15:27.801756092,E4_Acc,2024-06-24 13:42:35.569590092,-25.0,-60.0,3.0
1904-01-01 00:15:27.833006092,E4_Acc,2024-06-24 13:42:35.600840092,-25.0,-59.0,3.0
1904-01-01 00:15:27.864256092,E4_Acc,2024-06-24 13:42:35.632090092,-25.0,-59.0,3.0
1904-01-01 00:15:27.895516105,E4_Acc,2024-06-24 13:42:35.663350105,-26.0,-60.0,2.0
1904-01-01 00:15:27.926766105,E4_Acc,2024-06-24 13:42:35.694600105,-25.0,-60.0,2.0
1904-01-01 00:15:27.958016105,E4_Acc,2024-06-24 13:42:35.725850105,-25.0,-59.0,2.0
1904-01-01 00:15:27.989266105,E4_Acc,2024-06-24 13:42:35.757100105,-25.0,-60.0,2.0
1904-01-01 00:15:28.020516105,E4_Acc,2024-06-24 13:42:35.788350105,-24.0,-60.0,2.0
1904-01-01 00:15:28.051766105,E4_Acc,2024-06-24 13:42:35.819600105,-25.0,-60.0,2.0
1904-01-01 00:15:28.083016105,E4_Acc,2024-06-24 13:42:35.850850105,-24.0,-60.0,2.0
1904-01-01 00:15:28.114276119,E4_Acc,2024-06-24 13:42:35.882110119,-24.0,-60.0,2.0
1904-01-01 00:15:28.145526119,E4_Acc,2024-06-24 13:42:35.913360119,-24.0,-60.0,2.0
1904-01-01 00:15:28.176776119,E4_Acc,2024-06-24 13:42:35.944610119,-24.0,-60.0,2.0
1904-01-01 00:15:28.208026119,E4_Acc,2024-06-24 13:42:35.975860119,-24.0,-60.0,2.0
1904-01-01 00:15:28.239276119,E4_Acc,2024-06-24 13:42:36.007110119,-24.0,-60.0,2.0
1904-01-01 00:15:28.270526119,E4_Acc,2024-06-24 13:42:36.038360119,-24.0,-60.0,2.0
1904-01-01 00:15:28.301776119,E4_Acc,2024-06-24 13:42:36.069610119,-24.0,-60.0,2.0
1904-01-01 00:15:28.333035894,E4_Acc,2024-06-24 13:42:36.100869894,-24.0,-60.0,2.0
1904-01-01 00:15:28.364285893,E4_Acc,2024-06-24 13:42:36.132119893,-24.0,-60.0,2.0
1904-01-01 00:15:28.395535894,E4_Acc,2024-06-24 13:42:36.163369894,-24.0,-60.0,2.0
1904-01-01 00:15:28.426785894,E4_Acc,2024-06-24 13:42:36.194619894,-24.0,-60.0,2.0
1904-01-01 00:15:28.458035894,E4_Acc,2024-06-24 13:42:36.225869894,-24.0,-60.0,2.0
1904-01-01 00:15:28.489285894,E4_Acc,2024-06-24 13:42:36.257119894,-24.0,-60.0,2.0
1904-01-01 00:15:28.520535894,E4_Acc,2024-06-24 13:42:36.288369894,-24.0,-60.0,1.0
1904-01-01 00:15:28.551795908,E4_Acc,2024-06-24 13:42:36.319629908,-25.0,-60.0,2.0
1904-01-01 00:15:28.583045908,E4_Acc,2024-06-24 13:42:36.350879908,-25.0,-61.0,2.0
1904-01-01 00:15:28.614295908,E4_Acc,2024-06-24 13:42:36.382129908,-24.0,-60.0,2.0
1904-01-01 00:15:28.645545908,E4_Acc,2024-06-24 13:42:36.413379908,-24.0,-60.0,2.0
1904-01-01 00:15:28.676795908,E4_Acc,2024-06-24 13:42:36.444629908,-24.0,-60.0,2.0
1904-01-01 00:15:28.708045908,E4_Acc,2024-06-24 13:42:36.475879908,-24.0,-60.0,1.0
1904-01-01 00:15:28.739295908,E4_Acc,2024-06-24 13:42:36.507129908,-24.0,-60.0,1.0
1904-01-01 00:15:28.770555921,E4_Acc,2024-06-24 13:42:36.538389921,-24.0,-60.0,1.0
1904-01-01 00:15:28.801805921,E4_Acc,2024-06-24 13:42:36.569639921,-24.0,-60.0,1.0
1904-01-01 00:15:28.833055921,E4_Acc,2024-06-24 13:42:36.600889921,-24.0,-60.0,1.0
1904-01-01 00:15:28.864305921,E4_Acc,2024-06-24 13:42:36.632139921,-24.0,-60.0,1.0
1904-01-01 00:15:28.895555921,E4_Acc,2024-06-24 13:42:36.663389921,-23.0,-60.0,1.0
1904-01-01 00:15:28.926805921,E4_Acc,2024-06-24 13:42:36.694639921,-24.0,-61.0,2.0
1904-01-01 00:15:28.958065935,E4_Acc,2024-06-24 13:42:36.725899935,-24.0,-60.0,2.0
1904-01-01 00:15:28.989315935,E4_Acc,2024-06-24 13:42:36.757149935,-24.0,-60.0,2.0
1904-01-01 00:15:29.020565935,E4_Acc,2024-06-24 13:42:36.788399935,-25.0,-61.0,2.0
1904-01-01 00:15:29.051815935,E4_Acc,2024-06-24 13:42:36.819649935,-25.0,-60.0,2.0
1904-01-01 00:15:29.083065935,E4_Acc,2024-06-24 13:42:36.850899935,-24.0,-60.0,1.0
1904-01-01 00:15:29.114315935,E4_Acc,2024-06-24 13:42:36.882149935,-25.0,-60.0,1.0
1904-01-01 00:15:29.145565935,E4_Acc,2024-06-24 13:42:36.913399935,-24.0,-60.0,1.0
1904-01-01 00:15:29.176825948,E4_Acc,2024-06-24 13:42:36.944659948,-24.0,-60.0,1.0
1904-01-01 00:15:29.208075948,E4_Acc,2024-06-24 13:42:36.975909948,-24.0,-60.0,1.0
1904-01-01 00:15:29.239325948,E4_Acc,2024-06-24 13:42:37.007159948,-24.0,-60.0,1.0
1904-01-01 00:15:29.270575948,E4_Acc,2024-06-24 13:42:37.038409948,-24.0,-61.0,1.0
1904-01-01 00:15:29.301825948,E4_Acc,2024-06-24 13:42:37.069659948,-24.0,-60.0,2.0
1904-01-01 00:15:29.333075948,E4_Acc,2024-06-24 13:42:37.100909948,-24.0,-60.0,2.0
1904-01-01 00:15:29.364325948,E4_Acc,2024-06-24 13:42:37.132159948,-24.0,-60.0,2.0
1904-01-01 00:15:29.395585962,E4_Acc,2024-06-24 13:42:37.163419962,-24.0,-60.0,2.0
1904-01-01 00:15:29.426835962,E4_Acc,2024-06-24 13:42:37.194669962,-25.0,-61.0,2.0
1904-01-01 00:15:29.458085962,E4_Acc,2024-06-24 13:42:37.225919962,-24.0,-60.0,2.0
1904-01-01 00:15:29.489335961,E4_Acc,2024-06-24 13:42:37.257169961,-24.0,-60.0,2.0
1904-01-01 00:15:29.520585962,E4_Acc,2024-06-24 13:42:37.288419962,-24.0,-60.0,2.0
1904-01-01 00:15:29.551835962,E4_Acc,2024-06-24 13:42:37.319669962,-24.0,-60.0,2.0
1904-01-01 00:15:29.583085962,E4_Acc,2024-06-24 13:42:37.350919962,-24.0,-60.0,2.0
1904-01-01 00:15:29.614345976,E4_Acc,2024-06-24 13:42:37.382179976,-24.0,-60.0,2.0
1904-01-01 00:15:29.645595976,E4_Acc,2024-06-24 13:42:37.413429976,-24.0,-60.0,2.0
1904-01-01 00:15:29.676845976,E4_Acc,2024-06-24 13:42:37.444679976,-24.0,-60.0,1.0
1904-01-01 00:15:29.708095976,E4_Acc,2024-06-24 13:42:37.475929976,-24.0,-60.0,1.0
1904-01-01 00:15:29.739345976,E4_Acc,2024-06-24 13:42:37.507179976,-24.0,-60.0,1.0
1904-01-01 00:15:29.770595976,E4_Acc,2024-06-24 13:42:37.538429976,-24.0,-60.0,2.0
1904-01-01 00:15:29.801845976,E4_Acc,2024-06-24 13:42:37.569679976,-24.0,-60.0,2.0
1904-01-01 00:15:29.833105989,E4_Acc,2024-06-24 13:42:37.600939989,-24.0,-60.0,2.0
1904-01-01 00:15:29.864355989,E4_Acc,2024-06-24 13:42:37.632189989,-24.0,-60.0,2.0
1904-01-01 00:15:29.895605989,E4_Acc,2024-06-24 13:42:37.663439989,-24.0,-60.0,2.0
1904-01-01 00:15:29.926855989,E4_Acc,2024-06-24 13:42:37.694689989,-24.0,-60.0,2.0
1904-01-01 00:15:29.958105989,E4_Acc,2024-06-24 13:42:37.725939989,-24.0,-60.0,2.0
1904-01-01 00:15:29.989355989,E4_Acc,2024-06-24 13:42:37.757189989,-24.0,-60.0,2.0
1904-01-01 00:15:30.020605989,E4_Acc,2024-06-24 13:42:37.788439989,-24.0,-60.0,2.0
1904-01-01 00:15:30.051866003,E4_Acc,2024-06-24 13:42:37.819700003,-24.0,-60.0,2.0
1904-01-01 00:15:30.083116003,E4_Acc,2024-06-24 13:42:37.850950003,-24.0,-60.0,2.0
1904-01-01 00:15:30.114366003,E4_Acc,2024-06-24 13:42:37.882200003,-24.0,-60.0,2.0
1904-01-01 00:15:30.145616003,E4_Acc,2024-06-24 13:42:37.913450003,-24.0,-60.0,2.0
1904-01-01 00:15:30.176866003,E4_Acc,2024-06-24 13:42:37.944700003,-23.0,-60.0,2.0
1904-01-01 00:15:30.208116003,E4_Acc,2024-06-24 13:42:37.975950003,-23.0,-60.0,1.0
1904-01-01 00:15:30.239366003,E4_Acc,2024-06-24 13:42:38.007200003,-23.0,-60.0,1.0
1904-01-01 00:15:30.270626016,E4_Acc,2024-06-24 13:42:38.038460016,-24.0,-61.0,2.0
1904-01-01 00:15:30.301876016,E4_Acc,2024-06-24 13:42:38.069710016,-24.0,-61.0,2.0
1904-01-01 00:15:30.333126016,E4_Acc,2024-06-24 13:42:38.100960016,-24.0,-60.0,2.0
1904-01-01 00:15:30.364376016,E4_Acc,2024-06-24 13:42:38.132210016,-24.0,-60.0,2.0
1904-01-01 00:15:30.395626016,E4_Acc,2024-06-24 13:42:38.163460016,-24.0,-60.0,2.0
1904-01-01 00:15:30.426876016,E4_Acc,2024-06-24 13:42:38.194710016,-25.0,-61.0,2.0
1904-01-01 00:15:30.458126016,E4_Acc,2024-06-24 13:42:38.225960016,-24.0,-60.0,2.0
1904-01-01 00:15:30.489386030,E4_Acc,2024-06-24 13:42:38.257220030,-24.0,-60.0,2.0
1904-01-01 00:15:30.520636030,E4_Acc,2024-06-24 13:42:38.288470030,-24.0,-60.0,2.0
1904-01-01 00:15:30.551886030,E4_Acc,2024-06-24 13:42:38.319720030,-24.0,-60.0,2.0
1904-01-01 00:15:30.583136030,E4_Acc,2024-06-24 13:42:38.350970030,-24.0,-60.0,2.0
1904-01-01 00:15:30.614386030,E4_Acc,2024-06-24 13:42:38.382220030,-24.0,-60.0,2.0
1904-01-01 00:15:30.645636030,E4_Acc,2024-06-24 13:42:38.413470030,-24.0,-60.0,2.0
1904-01-01 00:15:30.676886030,E4_Acc,2024-06-24 13:42:38.444720030,-24.0,-61.0,2.0
1904-01-01 00:15:30.708146043,E4_Acc,2024-06-24 13:42:38.475980043,-23.0,-61.0,2.0
1904-01-01 00:15:30.739396042,E4_Acc,2024-06-24 13:42:38.507230042,-23.0,-60.0,2.0
1904-01-01 00:15:30.770646043,E4_Acc,2024-06-24 13:42:38.538480043,-24.0,-60.0,1.0
1904-01-01 00:15:30.801896043,E4_Acc,2024-06-24 13:42:38.569730043,-24.0,-60.0,2.0
1904-01-01 00:15:30.833146043,E4_Acc,2024-06-24 13:42:38.600980043,-24.0,-60.0,2.0
1904-01-01 00:15:30.864396043,E4_Acc,2024-06-24 13:42:38.632230043,-24.0,-60.0,2.0
1904-01-01 00:15:30.895646043,E4_Acc,2024-06-24 13:42:38.663480043,-24.0,-60.0,2.0
1904-01-01 00:15:30.926906057,E4_Acc,2024-06-24 13:42:38.694740057,-24.0,-60.0,2.0
1904-01-01 00:15:30.958156057,E4_Acc,2024-06-24 13:42:38.725990057,-24.0,-60.0,2.0
1904-01-01 00:15:30.989406057,E4_Acc,2024-06-24 13:42:38.757240057,-24.0,-60.0,2.0
1904-01-01 00:15:31.020656057,E4_Acc,2024-06-24 13:42:38.788490057,-24.0,-61.0,2.0
1904-01-01 00:15:31.051906057,E4_Acc,2024-06-24 13:42:38.819740057,-23.0,-60.0,2.0
1904-01-01 00:15:31.083156057,E4_Acc,2024-06-24 13:42:38.850990057,-23.0,-60.0,1.0
1904-01-01 00:15:31.114406057,E4_Acc,2024-06-24 13:42:38.882240057,-23.0,-61.0,1.0
1904-01-01 00:15:31.145666071,E4_Acc,2024-06-24 13:42:38.913500071,-23.0,-60.0,2.0
1904-01-01 00:15:31.176916071,E4_Acc,2024-06-24 13:42:38.944750071,-23.0,-60.0,2.0
1904-01-01 00:15:31.208166071,E4_Acc,2024-06-24 13:42:38.976000071,-23.0,-61.0,2.0
1904-01-01 00:15:31.239416071,E4_Acc,2024-06-24 13:42:39.007250071,-23.0,-61.0,1.0
1904-01-01 00:15:31.270666071,E4_Acc,2024-06-24 13:42:39.038500071,-24.0,-61.0,1.0
1904-01-01 00:15:31.301916071,E4_Acc,2024-06-24 13:42:39.069750071,-24.0,-60.0,1.0
1904-01-01 00:15:31.333176084,E4_Acc,2024-06-24 13:42:39.101010084,-24.0,-60.0,2.0
1904-01-01 00:15:31.364426084,E4_Acc,2024-06-24 13:42:39.132260084,-24.0,-60.0,2.0
1904-01-01 00:15:31.395676084,E4_Acc,2024-06-24 13:42:39.163510084,-24.0,-60.0,2.0
1904-01-01 00:15:31.426926084,E4_Acc,2024-06-24 13:42:39.194760084,-24.0,-60.0,2.0
1904-01-01 00:15:31.458176084,E4_Acc,2024-06-24 13:42:39.226010084,-24.0,-60.0,2.0
1904-01-01 00:15:31.489426084,E4_Acc,2024-06-24 13:42:39.257260084,-24.0,-60.0,2.0
1904-01-01 00:15:31.520676084,E4_Acc,2024-06-24 13:42:39.288510084,-24.0,-60.0,1.0
1904-01-01 00:15:31.551936098,E4_Acc,2024-06-24 13:42:39.319770098,-24.0,-60.0,1.0
1904-01-01 00:15:31.583186098,E4_Acc,2024-06-24 13:42:39.351020098,-24.0,-60.0,1.0
1904-01-01 00:15:31.614436098,E4_Acc,2024-06-24 13:42:39.382270098,-24.0,-60.0,1.0
1904-01-01 00:15:31.645686098,E4_Acc,2024-06-24 13:42:39.413520098,-24.0,-60.0,1.0
1904-01-01 00:15:31.676936098,E4_Acc,2024-06-24 13:42:39.444770098,-24.0,-60.0,1.0
1904-01-01 00:15:31.708186098,E4_Acc,2024-06-24 13:42:39.476020098,-24.0,-60.0,1.0
1904-01-01 00:15:31.739436098,E4_Acc,2024-06-24 13:42:39.507270098,-24.0,-60.0,1.0
1904-01-01 00:15:31.770696111,E4_Acc,2024-06-24 13:42:39.538530111,-24.0,-60.0,1.0
1904-01-01 00:15:31.801946111,E4_Acc,2024-06-24 13:42:39.569780111,-24.0,-60.0,2.0
1904-01-01 00:15:31.833196111,E4_Acc,2024-06-24 13:42:39.601030111,-24.0,-60.0,2.0
1904-01-01 00:15:31.864446111,E4_Acc,2024-06-24 13:42:39.632280111,-24.0,-60.0,1.0
1904-01-01 00:15:31.895696111,E4_Acc,2024-06-24 13:42:39.663530111,-24.0,-60.0,2.0
1904-01-01 00:15:31.926946111,E4_Acc,2024-06-24 13:42:39.694780111,-24.0,-61.0,2.0
1904-01-01 00:15:31.958196111,E4_Acc,2024-06-24 13:42:39.726030111,-24.0,-61.0,1.0
1904-01-01 00:15:31.989455886,E4_Acc,2024-06-24 13:42:39.757289886,-24.0,-60.0,2.0
1904-01-01 00:15:32.020705886,E4_Acc,2024-06-24 13:42:39.788539886,-24.0,-60.0,2.0
1904-01-01 00:15:32.051955886,E4_Acc,2024-06-24 13:42:39.819789886,-24.0,-60.0,2.0
1904-01-01 00:15:32.083205886,E4_Acc,2024-06-24 13:42:39.851039886,-24.0,-60.0,1.0
1904-01-01 00:15:32.114455886,E4_Acc,2024-06-24 13:42:39.882289886,-25.0,-60.0,1.0
1904-01-01 00:15:32.145705886,E4_Acc,2024-06-24 13:42:39.913539886,-25.0,-60.0,1.0
1904-01-01 00:15:32.176955886,E4_Acc,2024-06-24 13:42:39.944789886,-24.0,-60.0,1.0
1904-01-01 00:15:32.208215900,E4_Acc,2024-06-24 13:42:39.976049900,-24.0,-60.0,1.0
1904-01-01 00:15:32.239465900,E4_Acc,2024-06-24 13:42:40.007299900,-24.0,-60.0,1.0
1904-01-01 00:15:32.270715900,E4_Acc,2024-06-24 13:42:40.038549900,-24.0,-60.0,1.0
1904-01-01 00:15:32.301965900,E4_Acc,2024-06-24 13:42:40.069799900,-24.0,-60.0,2.0
1904-01-01 00:15:32.333215900,E4_Acc,2024-06-24 13:42:40.101049900,-24.0,-60.0,1.0
1904-01-01 00:15:32.364465900,E4_Acc,2024-06-24 13:42:40.132299900,-24.0,-60.0,2.0
1904-01-01 00:15:32.395715900,E4_Acc,2024-06-24 13:42:40.163549900,-24.0,-60.0,1.0
1904-01-01 00:15:32.426975914,E4_Acc,2024-06-24 13:42:40.194809914,-24.0,-60.0,2.0
1904-01-01 00:15:32.458225914,E4_Acc,2024-06-24 13:42:40.226059914,-24.0,-60.0,1.0
1904-01-01 00:15:32.489475913,E4_Acc,2024-06-24 13:42:40.257309913,-24.0,-61.0,1.0
1904-01-01 00:15:32.520725914,E4_Acc,2024-06-24 13:42:40.288559914,-24.0,-60.0,1.0
1904-01-01 00:15:32.551975914,E4_Acc,2024-06-24 13:42:40.319809914,-24.0,-60.0,2.0
1904-01-01 00:15:32.583225914,E4_Acc,2024-06-24 13:42:40.351059914,-24.0,-60.0,1.0
1904-01-01 00:15:32.614475914,E4_Acc,2024-06-24 13:42:40.382309914,-24.0,-60.0,2.0
1904-01-01 00:15:32.645735927,E4_Acc,2024-06-24 13:42:40.413569927,-24.0,-60.0,2.0
1904-01-01 00:15:32.676985927,E4_Acc,2024-06-24 13:42:40.444819927,-24.0,-60.0,1.0
1904-01-01 00:15:32.708235927,E4_Acc,2024-06-24 13:42:40.476069927,-24.0,-60.0,2.0
1904-01-01 00:15:32.739485926,E4_Acc,2024-06-24 13:42:40.507319926,-24.0,-60.0,2.0
1904-01-01 00:15:32.770735927,E4_Acc,2024-06-24 13:42:40.538569927,-24.0,-60.0,1.0
1904-01-01 00:15:32.801985927,E4_Acc,2024-06-24 13:42:40.569819927,-24.0,-60.0,1.0
1904-01-01 00:15:32.833235927,E4_Acc,2024-06-24 13:42:40.601069927,-24.0,-60.0,2.0
1904-01-01 00:15:32.864495941,E4_Acc,2024-06-24 13:42:40.632329941,-24.0,-60.0,2.0
1904-01-01 00:15:32.895745941,E4_Acc,2024-06-24 13:42:40.663579941,-24.0,-60.0,2.0
1904-01-01 00:15:32.926995941,E4_Acc,2024-06-24 13:42:40.694829941,-24.0,-60.0,2.0
1904-01-01 00:15:32.958245941,E4_Acc,2024-06-24 13:42:40.726079941,-24.0,-59.0,1.0
1904-01-01 00:15:32.989495941,E4_Acc,2024-06-24 13:42:40.757329941,-24.0,-60.0,1.0
1904-01-01 00:15:33.020745941,E4_Acc,2024-06-24 13:42:40.788579941,-24.0,-59.0,2.0
1904-01-01 00:15:33.051995941,E4_Acc,2024-06-24 13:42:40.819829941,-24.0,-60.0,1.0
1904-01-01 00:15:33.083255954,E4_Acc,2024-06-24 13:42:40.851089954,-24.0,-60.0,1.0
1904-01-01 00:15:33.114505954,E4_Acc,2024-06-24 13:42:40.882339954,-24.0,-60.0,2.0
1904-01-01 00:15:33.145755954,E4_Acc,2024-06-24 13:42:40.913589954,-24.0,-60.0,2.0
1904-01-01 00:15:33.177005954,E4_Acc,2024-06-24 13:42:40.944839954,-24.0,-59.0,2.0
1904-01-01 00:15:33.208255954,E4_Acc,2024-06-24 13:42:40.976089954,-24.0,-59.0,2.0
1904-01-01 00:15:33.239505954,E4_Acc,2024-06-24 13:42:41.007339954,-24.0,-59.0,1.0
1904-01-01 00:15:33.270755954,E4_Acc,2024-06-24 13:42:41.038589954,-24.0,-60.0,2.0
1904-01-01 00:15:33.302015968,E4_Acc,2024-06-24 13:42:41.069849968,-24.0,-61.0,2.0
1904-01-01 00:15:33.333265968,E4_Acc,2024-06-24 13:42:41.101099968,-24.0,-61.0,2.0
1904-01-01 00:15:33.364515968,E4_Acc,2024-06-24 13:42:41.132349968,-24.0,-62.0,2.0
1904-01-01 00:15:33.395765968,E4_Acc,2024-06-24 13:42:41.163599968,-23.0,-61.0,2.0
1904-01-01 00:15:33.427015968,E4_Acc,2024-06-24 13:42:41.194849968,-23.0,-61.0,2.0
1904-01-01 00:15:33.458265968,E4_Acc,2024-06-24 13:42:41.226099968,-23.0,-61.0,2.0
1904-01-01 00:15:33.489515967,E4_Acc,2024-06-24 13:42:41.257349967,-23.0,-61.0,2.0
1904-01-01 00:15:33.520775982,E4_Acc,2024-06-24 13:42:41.288609982,-22.0,-61.0,2.0
1904-01-01 00:15:33.552025982,E4_Acc,2024-06-24 13:42:41.319859982,-22.0,-61.0,2.0
1904-01-01 00:15:33.583275982,E4_Acc,2024-06-24 13:42:41.351109982,-22.0,-61.0,2.0
1904-01-01 00:15:33.614525982,E4_Acc,2024-06-24 13:42:41.382359982,-22.0,-61.0,3.0
1904-01-01 00:15:33.645775982,E4_Acc,2024-06-24 13:42:41.413609982,-22.0,-61.0,2.0
1904-01-01 00:15:33.677025982,E4_Acc,2024-06-24 13:42:41.444859982,-23.0,-61.0,2.0
1904-01-01 00:15:33.708275982,E4_Acc,2024-06-24 13:42:41.476109982,-23.0,-60.0,2.0
1904-01-01 00:15:33.739535995,E4_Acc,2024-06-24 13:42:41.507369995,-23.0,-61.0,2.0
1904-01-01 00:15:33.770785995,E4_Acc,2024-06-24 13:42:41.538619995,-24.0,-61.0,2.0
1904-01-01 00:15:33.802035995,E4_Acc,2024-06-24 13:42:41.569869995,-23.0,-60.0,2.0
1904-01-01 00:15:33.833285995,E4_Acc,2024-06-24 13:42:41.601119995,-23.0,-61.0,2.0
1904-01-01 00:15:33.864535995,E4_Acc,2024-06-24 13:42:41.632369995,-23.0,-60.0,2.0
1904-01-01 00:15:33.895785995,E4_Acc,2024-06-24 13:42:41.663619995,-24.0,-60.0,2.0
1904-01-01 00:15:33.927046009,E4_Acc,2024-06-24 13:42:41.694880009,-23.0,-61.0,2.0
1904-01-01 00:15:33.958296009,E4_Acc,2024-06-24 13:42:41.726130009,-23.0,-61.0,2.0
1904-01-01 00:15:33.989546009,E4_Acc,2024-06-24 13:42:41.757380009,-23.0,-61.0,2.0
1904-01-01 00:15:34.020796009,E4_Acc,2024-06-24 13:42:41.788630009,-23.0,-60.0,2.0
1904-01-01 00:15:34.052046009,E4_Acc,2024-06-24 13:42:41.819880009,-23.0,-61.0,2.0
1904-01-01 00:15:34.083296009,E4_Acc,2024-06-24 13:42:41.851130009,-23.0,-61.0,2.0
1904-01-01 00:15:34.114546009,E4_Acc,2024-06-24 13:42:41.882380009,-23.0,-61.0,2.0
1904-01-01 00:15:34.145806022,E4_Acc,2024-06-24 13:42:41.913640022,-23.0,-61.0,2.0
1904-01-01 00:15:34.177056022,E4_Acc,2024-06-24 13:42:41.944890022,-24.0,-60.0,2.0
1904-01-01 00:15:34.208306022,E4_Acc,2024-06-24 13:42:41.976140022,-24.0,-60.0,2.0
1904-01-01 00:15:34.239556022,E4_Acc,2024-06-24 13:42:42.007390022,-24.0,-60.0,2.0
1904-01-01 00:15:34.270806022,E4_Acc,2024-06-24 13:42:42.038640022,-24.0,-60.0,2.0
1904-01-01 00:15:34.302056022,E4_Acc,2024-06-24 13:42:42.069890022,-24.0,-60.0,2.0
1904-01-01 00:15:34.333306022,E4_Acc,2024-06-24 13:42:42.101140022,-23.0,-60.0,2.0
1904-01-01 00:15:34.364566036,E4_Acc,2024-06-24 13:42:42.132400036,-23.0,-60.0,2.0
1904-01-01 00:15:34.395816036,E4_Acc,2024-06-24 13:42:42.163650036,-24.0,-61.0,2.0
1904-01-01 00:15:34.427066036,E4_Acc,2024-06-24 13:42:42.194900036,-23.0,-61.0,2.0
1904-01-01 00:15:34.458316036,E4_Acc,2024-06-24 13:42:42.226150036,-23.0,-60.0,2.0
1904-01-01 00:15:34.489566036,E4_Acc,2024-06-24 13:42:42.257400036,-23.0,-60.0,1.0
1904-01-01 00:15:34.520816036,E4_Acc,2024-06-24 13:42:42.288650036,-23.0,-61.0,1.0
1904-01-01 00:15:34.552066036,E4_Acc,2024-06-24 13:42:42.319900036,-24.0,-61.0,2.0
1904-01-01 00:15:34.583326049,E4_Acc,2024-06-24 13:42:42.351160049,-23.0,-60.0,2.0
1904-01-01 00:15:34.614576049,E4_Acc,2024-06-24 13:42:42.382410049,-23.0,-61.0,2.0
1904-01-01 00:15:34.645826049,E4_Acc,2024-06-24 13:42:42.413660049,-23.0,-61.0,2.0
1904-01-01 00:15:34.677076049,E4_Acc,2024-06-24 13:42:42.444910049,-23.0,-61.0,1.0
1904-01-01 00:15:34.708326049,E4_Acc,2024-06-24 13:42:42.476160049,-23.0,-60.0,2.0
1904-01-01 00:15:34.739576049,E4_Acc,2024-06-24 13:42:42.507410049,-23.0,-60.0,2.0
1904-01-01 00:15:34.770826049,E4_Acc,2024-06-24 13:42:42.538660049,-23.0,-61.0,2.0
1904-01-01 00:15:34.802086063,E4_Acc,2024-06-24 13:42:42.569920063,-23.0,-61.0,2.0
1904-01-01 00:15:34.833336063,E4_Acc,2024-06-24 13:42:42.601170063,-23.0,-61.0,2.0
1904-01-01 00:15:34.864586063,E4_Acc,2024-06-24 13:42:42.632420063,-23.0,-61.0,2.0
1904-01-01 00:15:34.895836063,E4_Acc,2024-06-24 13:42:42.663670063,-23.0,-61.0,1.0
1904-01-01 00:15:34.927086063,E4_Acc,2024-06-24 13:42:42.694920063,-23.0,-60.0,2.0
1904-01-01 00:15:34.958336063,E4_Acc,2024-06-24 13:42:42.726170063,-23.0,-61.0,1.0
1904-01-01 00:15:34.989586063,E4_Acc,2024-06-24 13:42:42.757420063,-23.0,-61.0,1.0
1904-01-01 00:15:35.020846077,E4_Acc,2024-06-24 13:42:42.788680077,-23.0,-61.0,2.0
1904-01-01 00:15:35.052096077,E4_Acc,2024-06-24 13:42:42.819930077,-23.0,-61.0,1.0
1904-01-01 00:15:35.083346077,E4_Acc,2024-06-24 13:42:42.851180077,-23.0,-61.0,1.0
1904-01-01 00:15:35.114596077,E4_Acc,2024-06-24 13:42:42.882430077,-23.0,-60.0,2.0
1904-01-01 00:15:35.145846077,E4_Acc,2024-06-24 13:42:42.913680077,-23.0,-61.0,1.0
1904-01-01 00:15:35.177096077,E4_Acc,2024-06-24 13:42:42.944930077,-23.0,-61.0,1.0
1904-01-01 00:15:35.208346077,E4_Acc,2024-06-24 13:42:42.976180077,-23.0,-61.0,2.0
1904-01-01 00:15:35.239606090,E4_Acc,2024-06-24 13:42:43.007440090,-23.0,-60.0,1.0
1904-01-01 00:15:35.270856090,E4_Acc,2024-06-24 13:42:43.038690090,-23.0,-60.0,1.0
1904-01-01 00:15:35.302106090,E4_Acc,2024-06-24 13:42:43.069940090,-23.0,-61.0,2.0
1904-01-01 00:15:35.333356090,E4_Acc,2024-06-24 13:42:43.101190090,-23.0,-60.0,1.0
1904-01-01 00:15:35.364606090,E4_Acc,2024-06-24 13:42:43.132440090,-23.0,-61.0,1.0
1904-01-01 00:15:35.395856090,E4_Acc,2024-06-24 13:42:43.163690090,-23.0,-61.0,1.0
1904-01-01 00:15:35.427106090,E4_Acc,2024-06-24 13:42:43.194940090,-23.0,-60.0,2.0
1904-01-01 00:15:35.458366104,E4_Acc,2024-06-24 13:42:43.226200104,-23.0,-60.0,2.0
1904-01-01 00:15:35.489616104,E4_Acc,2024-06-24 13:42:43.257450104,-23.0,-61.0,1.0
1904-01-01 00:15:35.520866104,E4_Acc,2024-06-24 13:42:43.288700104,-23.0,-60.0,1.0
1904-01-01 00:15:35.552116104,E4_Acc,2024-06-24 13:42:43.319950104,-23.0,-61.0,1.0
1904-01-01 00:15:35.583366104,E4_Acc,2024-06-24 13:42:43.351200104,-23.0,-60.0,1.0
1904-01-01 00:15:35.614616104,E4_Acc,2024-06-24 13:42:43.382450104,-23.0,-61.0,1.0
1904-01-01 00:15:35.645866104,E4_Acc,2024-06-24 13:42:43.413700104,-23.0,-61.0,1.0
1904-01-01 00:15:35.677126117,E4_Acc,2024-06-24 13:42:43.444960117,-23.0,-61.0,1.0
1904-01-01 00:15:35.708376117,E4_Acc,2024-06-24 13:42:43.476210117,-23.0,-61.0,1.0
1904-01-01 00:15:35.739626117,E4_Acc,2024-06-24 13:42:43.507460117,-23.0,-61.0,1.0
1904-01-01 00:15:35.770876117,E4_Acc,2024-06-24 13:42:43.538710117,-23.0,-61.0,1.0
1904-01-01 00:15:35.802126117,E4_Acc,2024-06-24 13:42:43.569960117,-23.0,-61.0,2.0
1904-01-01 00:15:35.833376117,E4_Acc,2024-06-24 13:42:43.601210117,-23.0,-61.0,1.0
1904-01-01 00:15:35.864626117,E4_Acc,2024-06-24 13:42:43.632460117,-23.0,-60.0,1.0
1904-01-01 00:15:35.895885893,E4_Acc,2024-06-24 13:42:43.663719893,-23.0,-61.0,1.0
1904-01-01 00:15:35.927135893,E4_Acc,2024-06-24 13:42:43.694969893,-23.0,-61.0,1.0
1904-01-01 00:15:35.958385893,E4_Acc,2024-06-24 13:42:43.726219893,-23.0,-61.0,1.0
1904-01-01 00:15:35.989635893,E4_Acc,2024-06-24 13:42:43.757469893,-23.0,-61.0,1.0
1904-01-01 00:15:36.020885893,E4_Acc,2024-06-24 13:42:43.788719893,-23.0,-61.0,1.0
1904-01-01 00:15:36.052135893,E4_Acc,2024-06-24 13:42:43.819969893,-23.0,-61.0,1.0
1904-01-01 00:15:36.083385893,E4_Acc,2024-06-24 13:42:43.851219893,-23.0,-60.0,1.0
1904-01-01 00:15:36.114645906,E4_Acc,2024-06-24 13:42:43.882479906,-23.0,-60.0,1.0
1904-01-01 00:15:36.145895906,E4_Acc,2024-06-24 13:42:43.913729906,-23.0,-61.0,1.0
1904-01-01 00:15:36.177145906,E4_Acc,2024-06-24 13:42:43.944979906,-23.0,-61.0,1.0
1904-01-01 00:15:36.208395906,E4_Acc,2024-06-24 13:42:43.976229906,-23.0,-61.0,1.0
1904-01-01 00:15:36.239645906,E4_Acc,2024-06-24 13:42:44.007479906,-23.0,-61.0,1.0
1904-01-01 00:15:36.270895906,E4_Acc,2024-06-24 13:42:44.038729906,-23.0,-60.0,2.0
1904-01-01 00:15:36.302155920,E4_Acc,2024-06-24 13:42:44.069989920,-23.0,-60.0,1.0
1904-01-01 00:15:36.333405920,E4_Acc,2024-06-24 13:42:44.101239920,-23.0,-61.0,1.0
1904-01-01 00:15:36.364655920,E4_Acc,2024-06-24 13:42:44.132489920,-23.0,-61.0,1.0
1904-01-01 00:15:36.395905920,E4_Acc,2024-06-24 13:42:44.163739920,-23.0,-60.0,1.0
1904-01-01 00:15:36.427155920,E4_Acc,2024-06-24 13:42:44.194989920,-23.0,-61.0,1.0
1904-01-01 00:15:36.458405920,E4_Acc,2024-06-24 13:42:44.226239920,-23.0,-61.0,1.0
1904-01-01 00:15:36.489655919,E4_Acc,2024-06-24 13:42:44.257489919,-23.0,-61.0,1.0
1904-01-01 00:15:36.520915933,E4_Acc,2024-06-24 13:42:44.288749933,-24.0,-61.0,1.0
1904-01-01 00:15:36.552165933,E4_Acc,2024-06-24 13:42:44.319999933,-24.0,-61.0,1.0
1904-01-01 00:15:36.583415933,E4_Acc,2024-06-24 13:42:44.351249933,-23.0,-60.0,1.0
1904-01-01 00:15:36.614665933,E4_Acc,2024-06-24 13:42:44.382499933,-24.0,-60.0,1.0
1904-01-01 00:15:36.645915933,E4_Acc,2024-06-24 13:42:44.413749933,-23.0,-60.0,1.0
1904-01-01 00:15:36.677165933,E4_Acc,2024-06-24 13:42:44.444999933,-23.0,-61.0,2.0
1904-01-01 00:15:36.708415933,E4_Acc,2024-06-24 13:42:44.476249933,-23.0,-61.0,2.0
1904-01-01 00:15:36.739675946,E4_Acc,2024-06-24 13:42:44.507509946,-23.0,-61.0,2.0
1904-01-01 00:15:36.770925947,E4_Acc,2024-06-24 13:42:44.538759947,-23.0,-61.0,1.0
1904-01-01 00:15:36.802175947,E4_Acc,2024-06-24 13:42:44.570009947,-23.0,-61.0,1.0
1904-01-01 00:15:36.833425947,E4_Acc,2024-06-24 13:42:44.601259947,-23.0,-61.0,1.0
1904-01-01 00:15:36.864675947,E4_Acc,2024-06-24 13:42:44.632509947,-23.0,-61.0,1.0
1904-01-01 00:15:36.895925947,E4_Acc,2024-06-24 13:42:44.663759947,-23.0,-61.0,1.0
1904-01-01 00:15:36.927175947,E4_Acc,2024-06-24 13:42:44.695009947,-23.0,-61.0,1.0
1904-01-01 00:15:36.958435960,E4_Acc,2024-06-24 13:42:44.726269960,-23.0,-61.0,1.0
1904-01-01 00:15:36.989685960,E4_Acc,2024-06-24 13:42:44.757519960,-23.0,-61.0,1.0
1904-01-01 00:15:37.020935960,E4_Acc,2024-06-24 13:42:44.788769960,-23.0,-60.0,1.0
1904-01-01 00:15:37.052185960,E4_Acc,2024-06-24 13:42:44.820019960,-23.0,-61.0,1.0
1904-01-01 00:15:37.083435960,E4_Acc,2024-06-24 13:42:44.851269960,-23.0,-61.0,1.0
1904-01-01 00:15:37.114685960,E4_Acc,2024-06-24 13:42:44.882519960,-23.0,-61.0,1.0
1904-01-01 00:15:37.145935960,E4_Acc,2024-06-24 13:42:44.913769960,-23.0,-60.0,2.0
1904-01-01 00:15:37.177195974,E4_Acc,2024-06-24 13:42:44.945029974,-23.0,-60.0,2.0
1904-01-01 00:15:37.208445974,E4_Acc,2024-06-24 13:42:44.976279974,-23.0,-61.0,2.0
1904-01-01 00:15:37.239695974,E4_Acc,2024-06-24 13:42:45.007529974,-23.0,-61.0,1.0
1904-01-01 00:15:37.270945974,E4_Acc,2024-06-24 13:42:45.038779974,-23.0,-60.0,2.0
1904-01-01 00:15:37.302195974,E4_Acc,2024-06-24 13:42:45.070029974,-23.0,-60.0,2.0
1904-01-01 00:15:37.333445974,E4_Acc,2024-06-24 13:42:45.101279974,-24.0,-61.0,1.0
1904-01-01 00:15:37.364695974,E4_Acc,2024-06-24 13:42:45.132529974,-24.0,-61.0,2.0
1904-01-01 00:15:37.395955988,E4_Acc,2024-06-24 13:42:45.163789988,-24.0,-61.0,2.0
1904-01-01 00:15:37.427205988,E4_Acc,2024-06-24 13:42:45.195039988,-24.0,-60.0,2.0
1904-01-01 00:15:37.458455988,E4_Acc,2024-06-24 13:42:45.226289988,-24.0,-60.0,2.0
1904-01-01 00:15:37.489705988,E4_Acc,2024-06-24 13:42:45.257539988,-24.0,-60.0,2.0
1904-01-01 00:15:37.520955988,E4_Acc,2024-06-24 13:42:45.288789988,-24.0,-60.0,2.0
1904-01-01 00:15:37.552205988,E4_Acc,2024-06-24 13:42:45.320039988,-24.0,-60.0,2.0
1904-01-01 00:15:37.583455988,E4_Acc,2024-06-24 13:42:45.351289988,-24.0,-60.0,2.0
1904-01-01 00:15:37.614716001,E4_Acc,2024-06-24 13:42:45.382550001,-23.0,-60.0,2.0
1904-01-01 00:15:37.645966001,E4_Acc,2024-06-24 13:42:45.413800001,-23.0,-60.0,2.0
1904-01-01 00:15:37.677216001,E4_Acc,2024-06-24 13:42:45.445050001,-23.0,-60.0,2.0
1904-01-01 00:15:37.708466001,E4_Acc,2024-06-24 13:42:45.476300001,-23.0,-60.0,1.0
1904-01-01 00:15:37.739716001,E4_Acc,2024-06-24 13:42:45.507550001,-23.0,-60.0,2.0
1904-01-01 00:15:37.770966001,E4_Acc,2024-06-24 13:42:45.538800001,-23.0,-60.0,2.0
1904-01-01 00:15:37.802216001,E4_Acc,2024-06-24 13:42:45.570050001,-23.0,-60.0,2.0
1904-01-01 00:15:37.833476015,E4_Acc,2024-06-24 13:42:45.601310015,-23.0,-60.0,2.0
1904-01-01 00:15:37.864726015,E4_Acc,2024-06-24 13:42:45.632560015,-23.0,-60.0,1.0
1904-01-01 00:15:37.895976015,E4_Acc,2024-06-24 13:42:45.663810015,-24.0,-60.0,1.0
1904-01-01 00:15:37.927226015,E4_Acc,2024-06-24 13:42:45.695060015,-24.0,-60.0,2.0
1904-01-01 00:15:37.958476015,E4_Acc,2024-06-24 13:42:45.726310015,-23.0,-60.0,2.0
1904-01-01 00:15:37.989726015,E4_Acc,2024-06-24 13:42:45.757560015,-23.0,-60.0,2.0
1904-01-01 00:15:38.020976015,E4_Acc,2024-06-24 13:42:45.788810015,-24.0,-60.0,2.0
1904-01-01 00:15:38.052236028,E4_Acc,2024-06-24 13:42:45.820070028,-24.0,-61.0,2.0
1904-01-01 00:15:38.083486028,E4_Acc,2024-06-24 13:42:45.851320028,-23.0,-61.0,2.0
1904-01-01 00:15:38.114736028,E4_Acc,2024-06-24 13:42:45.882570028,-23.0,-60.0,2.0
1904-01-01 00:15:38.145986028,E4_Acc,2024-06-24 13:42:45.913820028,-23.0,-60.0,2.0
1904-01-01 00:15:38.177236028,E4_Acc,2024-06-24 13:42:45.945070028,-24.0,-61.0,2.0
1904-01-01 00:15:38.208486028,E4_Acc,2024-06-24 13:42:45.976320028,-24.0,-61.0,2.0
1904-01-01 00:15:38.239736028,E4_Acc,2024-06-24 13:42:46.007570028,-24.0,-61.0,2.0
1904-01-01 00:15:38.270996042,E4_Acc,2024-06-24 13:42:46.038830042,-23.0,-60.0,2.0
1904-01-01 00:15:38.302246042,E4_Acc,2024-06-24 13:42:46.070080042,-23.0,-60.0,2.0
1904-01-01 00:15:38.333496042,E4_Acc,2024-06-24 13:42:46.101330042,-24.0,-61.0,2.0
1904-01-01 00:15:38.364746042,E4_Acc,2024-06-24 13:42:46.132580042,-23.0,-61.0,2.0
1904-01-01 00:15:38.395996042,E4_Acc,2024-06-24 13:42:46.163830042,-23.0,-61.0,2.0
1904-01-01 00:15:38.427246042,E4_Acc,2024-06-24 13:42:46.195080042,-23.0,-61.0,1.0
1904-01-01 00:15:38.458506055,E4_Acc,2024-06-24 13:42:46.226340055,-23.0,-61.0,1.0
1904-01-01 00:15:38.489756054,E4_Acc,2024-06-24 13:42:46.257590054,-23.0,-60.0,2.0
1904-01-01 00:15:38.521006055,E4_Acc,2024-06-24 13:42:46.288840055,-23.0,-61.0,1.0
1904-01-01 00:15:38.552256055,E4_Acc,2024-06-24 13:42:46.320090055,-23.0,-61.0,1.0
1904-01-01 00:15:38.583506055,E4_Acc,2024-06-24 13:42:46.351340055,-23.0,-61.0,1.0
1904-01-01 00:15:38.614756055,E4_Acc,2024-06-24 13:42:46.382590055,-23.0,-61.0,1.0
1904-01-01 00:15:38.646006055,E4_Acc,2024-06-24 13:42:46.413840055,-23.0,-61.0,1.0
1904-01-01 00:15:38.677266069,E4_Acc,2024-06-24 13:42:46.445100069,-23.0,-60.0,1.0
1904-01-01 00:15:38.708516069,E4_Acc,2024-06-24 13:42:46.476350069,-23.0,-61.0,1.0
1904-01-01 00:15:38.739766069,E4_Acc,2024-06-24 13:42:46.507600069,-23.0,-61.0,1.0
1904-01-01 00:15:38.771016069,E4_Acc,2024-06-24 13:42:46.538850069,-23.0,-60.0,1.0
1904-01-01 00:15:38.802266069,E4_Acc,2024-06-24 13:42:46.570100069,-23.0,-60.0,1.0
1904-01-01 00:15:38.833516069,E4_Acc,2024-06-24 13:42:46.601350069,-23.0,-61.0,1.0
1904-01-01 00:15:38.864766069,E4_Acc,2024-06-24 13:42:46.632600069,-23.0,-61.0,1.0
1904-01-01 00:15:38.896026083,E4_Acc,2024-06-24 13:42:46.663860083,-23.0,-61.0,1.0
1904-01-01 00:15:38.927276083,E4_Acc,2024-06-24 13:42:46.695110083,-23.0,-60.0,1.0
1904-01-01 00:15:38.958526083,E4_Acc,2024-06-24 13:42:46.726360083,-23.0,-60.0,1.0
1904-01-01 00:15:38.989776083,E4_Acc,2024-06-24 13:42:46.757610083,-24.0,-61.0,1.0
1904-01-01 00:15:39.021026083,E4_Acc,2024-06-24 13:42:46.788860083,-24.0,-61.0,2.0
1904-01-01 00:15:39.052276083,E4_Acc,2024-06-24 13:42:46.820110083,-24.0,-60.0,2.0
1904-01-01 00:15:39.083526083,E4_Acc,2024-06-24 13:42:46.851360083,-24.0,-60.0,2.0
1904-01-01 00:15:39.114786096,E4_Acc,2024-06-24 13:42:46.882620096,-24.0,-60.0,2.0
1904-01-01 00:15:39.146036096,E4_Acc,2024-06-24 13:42:46.913870096,-24.0,-61.0,2.0
1904-01-01 00:15:39.177286096,E4_Acc,2024-06-24 13:42:46.945120096,-24.0,-61.0,2.0
1904-01-01 00:15:39.208536096,E4_Acc,2024-06-24 13:42:46.976370096,-24.0,-61.0,2.0
1904-01-01 00:15:39.239786096,E4_Acc,2024-06-24 13:42:47.007620096,-23.0,-60.0,1.0
1904-01-01 00:15:39.271036096,E4_Acc,2024-06-24 13:42:47.038870096,-23.0,-60.0,2.0
1904-01-01 00:15:39.302286096,E4_Acc,2024-06-24 13:42:47.070120096,-23.0,-60.0,1.0
1904-01-01 00:15:39.333546110,E4_Acc,2024-06-24 13:42:47.101380110,-23.0,-60.0,1.0
1904-01-01 00:15:39.364796110,E4_Acc,2024-06-24 13:42:47.132630110,-23.0,-60.0,1.0
1904-01-01 00:15:39.396046110,E4_Acc,2024-06-24 13:42:47.163880110,-23.0,-61.0,1.0
1904-01-01 00:15:39.427296110,E4_Acc,2024-06-24 13:42:47.195130110,-23.0,-61.0,1.0
1904-01-01 00:15:39.458546110,E4_Acc,2024-06-24 13:42:47.226380110,-23.0,-60.0,1.0
1904-01-01 00:15:39.489796110,E4_Acc,2024-06-24 13:42:47.257630110,-23.0,-60.0,1.0
1904-01-01 00:15:39.521046110,E4_Acc,2024-06-24 13:42:47.288880110,-23.0,-60.0,1.0
1904-01-01 00:15:39.552305885,E4_Acc,2024-06-24 13:42:47.320139885,-23.0,-61.0,1.0
1904-01-01 00:15:39.583555885,E4_Acc,2024-06-24 13:42:47.351389885,-24.0,-61.0,1.0
1904-01-01 00:15:39.614805885,E4_Acc,2024-06-24 13:42:47.382639885,-23.0,-60.0,1.0
1904-01-01 00:15:39.646055885,E4_Acc,2024-06-24 13:42:47.413889885,-23.0,-60.0,2.0
1904-01-01 00:15:39.677305885,E4_Acc,2024-06-24 13:42:47.445139885,-23.0,-61.0,1.0
1904-01-01 00:15:39.708555885,E4_Acc,2024-06-24 13:42:47.476389885,-23.0,-61.0,1.0
1904-01-01 00:15:39.739805885,E4_Acc,2024-06-24 13:42:47.507639885,-23.0,-61.0,1.0
1904-01-01 00:15:39.771065899,E4_Acc,2024-06-24 13:42:47.538899899,-23.0,-60.0,1.0
1904-01-01 00:15:39.802315899,E4_Acc,2024-06-24 13:42:47.570149899,-23.0,-61.0,1.0
1904-01-01 00:15:39.833565899,E4_Acc,2024-06-24 13:42:47.601399899,-23.0,-61.0,1.0
1904-01-01 00:15:39.864815899,E4_Acc,2024-06-24 13:42:47.632649899,-24.0,-61.0,2.0
1904-01-01 00:15:39.896065899,E4_Acc,2024-06-24 13:42:47.663899899,-23.0,-61.0,1.0
1904-01-01 00:15:39.927315899,E4_Acc,2024-06-24 13:42:47.695149899,-23.0,-60.0,2.0
1904-01-01 00:15:39.958565899,E4_Acc,2024-06-24 13:42:47.726399899,-23.0,-61.0,1.0
1904-01-01 00:15:39.989825912,E4_Acc,2024-06-24 13:42:47.757659912,-23.0,-61.0,2.0
1904-01-01 00:15:40.021075912,E4_Acc,2024-06-24 13:42:47.788909912,-24.0,-61.0,2.0
1904-01-01 00:15:40.052325912,E4_Acc,2024-06-24 13:42:47.820159912,-24.0,-60.0,2.0
1904-01-01 00:15:40.083575912,E4_Acc,2024-06-24 13:42:47.851409912,-23.0,-60.0,1.0
1904-01-01 00:15:40.114825912,E4_Acc,2024-06-24 13:42:47.882659912,-24.0,-60.0,1.0
1904-01-01 00:15:40.146075912,E4_Acc,2024-06-24 13:42:47.913909912,-24.0,-61.0,1.0
1904-01-01 00:15:40.177325912,E4_Acc,2024-06-24 13:42:47.945159912,-24.0,-60.0,1.0
1904-01-01 00:15:40.208585926,E4_Acc,2024-06-24 13:42:47.976419926,-23.0,-60.0,1.0
1904-01-01 00:15:40.239835926,E4_Acc,2024-06-24 13:42:48.007669926,-23.0,-61.0,1.0
1904-01-01 00:15:40.271085926,E4_Acc,2024-06-24 13:42:48.038919926,-23.0,-60.0,2.0
1904-01-01 00:15:40.302335926,E4_Acc,2024-06-24 13:42:48.070169926,-24.0,-60.0,1.0
1904-01-01 00:15:40.333585926,E4_Acc,2024-06-24 13:42:48.101419926,-24.0,-61.0,1.0
1904-01-01 00:15:40.364835926,E4_Acc,2024-06-24 13:42:48.132669926,-24.0,-61.0,1.0
1904-01-01 00:15:40.396085926,E4_Acc,2024-06-24 13:42:48.163919926,-24.0,-61.0,1.0
1904-01-01 00:15:40.427345939,E4_Acc,2024-06-24 13:42:48.195179939,-24.0,-60.0,1.0
1904-01-01 00:15:40.458595939,E4_Acc,2024-06-24 13:42:48.226429939,-23.0,-60.0,1.0
1904-01-01 00:15:40.489845939,E4_Acc,2024-06-24 13:42:48.257679939,-23.0,-60.0,2.0
1904-01-01 00:15:40.521095939,E4_Acc,2024-06-24 13:42:48.288929939,-23.0,-61.0,1.0
1904-01-01 00:15:40.552345939,E4_Acc,2024-06-24 13:42:48.320179939,-23.0,-60.0,1.0
1904-01-01 00:15:40.583595939,E4_Acc,2024-06-24 13:42:48.351429939,-23.0,-60.0,1.0
1904-01-01 00:15:40.614845939,E4_Acc,2024-06-24 13:42:48.382679939,-24.0,-60.0,1.0
1904-01-01 00:15:40.646105953,E4_Acc,2024-06-24 13:42:48.413939953,-24.0,-60.0,1.0
1904-01-01 00:15:40.677355953,E4_Acc,2024-06-24 13:42:48.445189953,-24.0,-61.0,1.0
1904-01-01 00:15:40.708605953,E4_Acc,2024-06-24 13:42:48.476439953,-24.0,-61.0,2.0
1904-01-01 00:15:40.739855953,E4_Acc,2024-06-24 13:42:48.507689953,-24.0,-60.0,2.0
1904-01-01 00:15:40.771105953,E4_Acc,2024-06-24 13:42:48.538939953,-24.0,-60.0,2.0
1904-01-01 00:15:40.802355953,E4_Acc,2024-06-24 13:42:48.570189953,-24.0,-60.0,2.0
1904-01-01 00:15:40.833605953,E4_Acc,2024-06-24 13:42:48.601439953,-24.0,-60.0,2.0
1904-01-01 00:15:40.864865966,E4_Acc,2024-06-24 13:42:48.632699966,-24.0,-60.0,2.0
1904-01-01 00:15:40.896115966,E4_Acc,2024-06-24 13:42:48.663949966,-24.0,-60.0,2.0
1904-01-01 00:15:40.927365966,E4_Acc,2024-06-24 13:42:48.695199966,-24.0,-60.0,2.0
1904-01-01 00:15:40.958615966,E4_Acc,2024-06-24 13:42:48.726449966,-24.0,-61.0,2.0
1904-01-01 00:15:40.989865966,E4_Acc,2024-06-24 13:42:48.757699966,-24.0,-60.0,2.0
1904-01-01 00:15:41.021115966,E4_Acc,2024-06-24 13:42:48.788949966,-24.0,-60.0,2.0
1904-01-01 00:15:41.052365966,E4_Acc,2024-06-24 13:42:48.820199966,-24.0,-60.0,2.0
1904-01-01 00:15:41.083625980,E4_Acc,2024-06-24 13:42:48.851459980,-24.0,-60.0,2.0
1904-01-01 00:15:41.114875980,E4_Acc,2024-06-24 13:42:48.882709980,-24.0,-60.0,2.0
1904-01-01 00:15:41.146125980,E4_Acc,2024-06-24 13:42:48.913959980,-24.0,-60.0,2.0
1904-01-01 00:15:41.177375980,E4_Acc,2024-06-24 13:42:48.945209980,-24.0,-60.0,2.0
1904-01-01 00:15:41.208625980,E4_Acc,2024-06-24 13:42:48.976459980,-24.0,-60.0,2.0
1904-01-01 00:15:41.239875980,E4_Acc,2024-06-24 13:42:49.007709980,-24.0,-60.0,2.0
1904-01-01 00:15:41.271135994,E4_Acc,2024-06-24 13:42:49.038969994,-24.0,-60.0,2.0
1904-01-01 00:15:41.302385994,E4_Acc,2024-06-24 13:42:49.070219994,-24.0,-60.0,2.0
1904-01-01 00:15:41.333635994,E4_Acc,2024-06-24 13:42:49.101469994,-24.0,-60.0,2.0
1904-01-01 00:15:41.364885994,E4_Acc,2024-06-24 13:42:49.132719994,-24.0,-60.0,2.0
1904-01-01 00:15:41.396135994,E4_Acc,2024-06-24 13:42:49.163969994,-24.0,-60.0,2.0
1904-01-01 00:15:41.427385994,E4_Acc,2024-06-24 13:42:49.195219994,-24.0,-60.0,2.0
1904-01-01 00:15:41.458635994,E4_Acc,2024-06-24 13:42:49.226469994,-24.0,-60.0,2.0
1904-01-01 00:15:41.489896006,E4_Acc,2024-06-24 13:42:49.257730006,-24.0,-60.0,2.0
1904-01-01 00:15:41.521146007,E4_Acc,2024-06-24 13:42:49.288980007,-24.0,-60.0,2.0
1904-01-01 00:15:41.552396007,E4_Acc,2024-06-24 13:42:49.320230007,-24.0,-60.0,2.0
1904-01-01 00:15:41.583646007,E4_Acc,2024-06-24 13:42:49.351480007,-24.0,-60.0,2.0
1904-01-01 00:15:41.614896007,E4_Acc,2024-06-24 13:42:49.382730007,-24.0,-60.0,2.0
1904-01-01 00:15:41.646146007,E4_Acc,2024-06-24 13:42:49.413980007,-24.0,-60.0,2.0
1904-01-01 00:15:41.677396007,E4_Acc,2024-06-24 13:42:49.445230007,-24.0,-60.0,2.0
1904-01-01 00:15:41.708656021,E4_Acc,2024-06-24 13:42:49.476490021,-24.0,-60.0,2.0
1904-01-01 00:15:41.739906021,E4_Acc,2024-06-24 13:42:49.507740021,-24.0,-60.0,2.0
1904-01-01 00:15:41.771156021,E4_Acc,2024-06-24 13:42:49.538990021,-24.0,-60.0,2.0
1904-01-01 00:15:41.802406021,E4_Acc,2024-06-24 13:42:49.570240021,-24.0,-60.0,2.0
1904-01-01 00:15:41.833656021,E4_Acc,2024-06-24 13:42:49.601490021,-24.0,-60.0,2.0
1904-01-01 00:15:41.864906021,E4_Acc,2024-06-24 13:42:49.632740021,-24.0,-60.0,2.0
1904-01-01 00:15:41.896156021,E4_Acc,2024-06-24 13:42:49.663990021,-24.0,-60.0,2.0
1904-01-01 00:15:41.927416034,E4_Acc,2024-06-24 13:42:49.695250034,-24.0,-60.0,2.0
1904-01-01 00:15:41.958666034,E4_Acc,2024-06-24 13:42:49.726500034,-24.0,-60.0,2.0
1904-01-01 00:15:41.989916034,E4_Acc,2024-06-24 13:42:49.757750034,-24.0,-60.0,2.0
1904-01-01 00:15:42.021166034,E4_Acc,2024-06-24 13:42:49.789000034,-24.0,-60.0,2.0
1904-01-01 00:15:42.052416034,E4_Acc,2024-06-24 13:42:49.820250034,-24.0,-60.0,2.0
1904-01-01 00:15:42.083666034,E4_Acc,2024-06-24 13:42:49.851500034,-24.0,-61.0,2.0
1904-01-01 00:15:42.114916034,E4_Acc,2024-06-24 13:42:49.882750034,-24.0,-60.0,2.0
1904-01-01 00:15:42.146176048,E4_Acc,2024-06-24 13:42:49.914010048,-23.0,-60.0,2.0
1904-01-01 00:15:42.177426048,E4_Acc,2024-06-24 13:42:49.945260048,-24.0,-60.0,2.0
1904-01-01 00:15:42.208676048,E4_Acc,2024-06-24 13:42:49.976510048,-24.0,-60.0,2.0
1904-01-01 00:15:42.239926048,E4_Acc,2024-06-24 13:42:50.007760048,-24.0,-60.0,2.0
1904-01-01 00:15:42.271176048,E4_Acc,2024-06-24 13:42:50.039010048,-24.0,-60.0,2.0
1904-01-01 00:15:42.302426048,E4_Acc,2024-06-24 13:42:50.070260048,-24.0,-60.0,2.0
1904-01-01 00:15:42.333676048,E4_Acc,2024-06-24 13:42:50.101510048,-24.0,-60.0,2.0
1904-01-01 00:15:42.364936061,E4_Acc,2024-06-24 13:42:50.132770061,-24.0,-61.0,2.0
1904-01-01 00:15:42.396186061,E4_Acc,2024-06-24 13:42:50.164020061,-24.0,-60.0,2.0
1904-01-01 00:15:42.427436061,E4_Acc,2024-06-24 13:42:50.195270061,-24.0,-60.0,2.0
1904-01-01 00:15:42.458686061,E4_Acc,2024-06-24 13:42:50.226520061,-23.0,-60.0,2.0
1904-01-01 00:15:42.489936061,E4_Acc,2024-06-24 13:42:50.257770061,-23.0,-61.0,2.0
1904-01-01 00:15:42.521186061,E4_Acc,2024-06-24 13:42:50.289020061,-23.0,-61.0,2.0
1904-01-01 00:15:42.552436061,E4_Acc,2024-06-24 13:42:50.320270061,-23.0,-61.0,2.0
1904-01-01 00:15:42.583696075,E4_Acc,2024-06-24 13:42:50.351530075,-23.0,-61.0,2.0
1904-01-01 00:15:42.614946075,E4_Acc,2024-06-24 13:42:50.382780075,-23.0,-60.0,2.0
1904-01-01 00:15:42.646196075,E4_Acc,2024-06-24 13:42:50.414030075,-23.0,-60.0,2.0
1904-01-01 00:15:42.677446075,E4_Acc,2024-06-24 13:42:50.445280075,-23.0,-60.0,2.0
1904-01-01 00:15:42.708696075,E4_Acc,2024-06-24 13:42:50.476530075,-23.0,-61.0,2.0
1904-01-01 00:15:42.739946075,E4_Acc,2024-06-24 13:42:50.507780075,-23.0,-60.0,2.0
1904-01-01 00:15:42.771196075,E4_Acc,2024-06-24 13:42:50.539030075,-23.0,-60.0,2.0
1904-01-01 00:15:42.802456089,E4_Acc,2024-06-24 13:42:50.570290089,-23.0,-60.0,2.0
1904-01-01 00:15:42.833706089,E4_Acc,2024-06-24 13:42:50.601540089,-23.0,-61.0,2.0
1904-01-01 00:15:42.864956089,E4_Acc,2024-06-24 13:42:50.632790089,-23.0,-60.0,2.0
1904-01-01 00:15:42.896206089,E4_Acc,2024-06-24 13:42:50.664040089,-24.0,-60.0,2.0
1904-01-01 00:15:42.927456089,E4_Acc,2024-06-24 13:42:50.695290089,-24.0,-61.0,2.0
1904-01-01 00:15:42.958706089,E4_Acc,2024-06-24 13:42:50.726540089,-24.0,-60.0,2.0
1904-01-01 00:15:42.989956089,E4_Acc,2024-06-24 13:42:50.757790089,-23.0,-60.0,2.0
1904-01-01 00:15:43.021216102,E4_Acc,2024-06-24 13:42:50.789050102,-24.0,-60.0,2.0
1904-01-01 00:15:43.052466102,E4_Acc,2024-06-24 13:42:50.820300102,-24.0,-60.0,2.0
1904-01-01 00:15:43.083716102,E4_Acc,2024-06-24 13:42:50.851550102,-24.0,-61.0,2.0
1904-01-01 00:15:43.114966102,E4_Acc,2024-06-24 13:42:50.882800102,-24.0,-60.0,2.0
1904-01-01 00:15:43.146216102,E4_Acc,2024-06-24 13:42:50.914050102,-24.0,-60.0,2.0
1904-01-01 00:15:43.177466102,E4_Acc,2024-06-24 13:42:50.945300102,-23.0,-60.0,2.0
1904-01-01 00:15:43.208716102,E4_Acc,2024-06-24 13:42:50.976550102,-23.0,-60.0,2.0
1904-01-01 00:15:43.239976116,E4_Acc,2024-06-24 13:42:51.007810116,-24.0,-61.0,2.0
1904-01-01 00:15:43.271226116,E4_Acc,2024-06-24 13:42:51.039060116,-23.0,-61.0,2.0
1904-01-01 00:15:43.302476116,E4_Acc,2024-06-24 13:42:51.070310116,-23.0,-60.0,2.0
1904-01-01 00:15:43.333726116,E4_Acc,2024-06-24 13:42:51.101560116,-23.0,-60.0,2.0
1904-01-01 00:15:43.364976116,E4_Acc,2024-06-24 13:42:51.132810116,-24.0,-60.0,2.0
1904-01-01 00:15:43.396226116,E4_Acc,2024-06-24 13:42:51.164060116,-24.0,-61.0,2.0
1904-01-01 00:15:43.427476116,E4_Acc,2024-06-24 13:42:51.195310116,-24.0,-61.0,2.0
1904-01-01 00:15:43.458735891,E4_Acc,2024-06-24 13:42:51.226569891,-24.0,-60.0,2.0
1904-01-01 00:15:43.489985891,E4_Acc,2024-06-24 13:42:51.257819891,-23.0,-60.0,2.0
1904-01-01 00:15:43.521235891,E4_Acc,2024-06-24 13:42:51.289069891,-24.0,-60.0,2.0
1904-01-01 00:15:43.552485891,E4_Acc,2024-06-24 13:42:51.320319891,-24.0,-60.0,2.0
1904-01-01 00:15:43.583735891,E4_Acc,2024-06-24 13:42:51.351569891,-23.0,-60.0,2.0
1904-01-01 00:15:43.614985891,E4_Acc,2024-06-24 13:42:51.382819891,-24.0,-60.0,2.0
1904-01-01 00:15:43.646245905,E4_Acc,2024-06-24 13:42:51.414079905,-24.0,-60.0,2.0
1904-01-01 00:15:43.677495905,E4_Acc,2024-06-24 13:42:51.445329905,-24.0,-60.0,2.0
1904-01-01 00:15:43.708745905,E4_Acc,2024-06-24 13:42:51.476579905,-24.0,-60.0,2.0
1904-01-01 00:15:43.739995905,E4_Acc,2024-06-24 13:42:51.507829905,-24.0,-60.0,2.0
1904-01-01 00:15:43.771245905,E4_Acc,2024-06-24 13:42:51.539079905,-24.0,-60.0,2.0
1904-01-01 00:15:43.802495905,E4_Acc,2024-06-24 13:42:51.570329905,-23.0,-60.0,2.0
1904-01-01 00:15:43.833745905,E4_Acc,2024-06-24 13:42:51.601579905,-24.0,-60.0,2.0
1904-01-01 00:15:43.865005918,E4_Acc,2024-06-24 13:42:51.632839918,-24.0,-61.0,2.0
1904-01-01 00:15:43.896255918,E4_Acc,2024-06-24 13:42:51.664089918,-24.0,-60.0,2.0
1904-01-01 00:15:43.927505918,E4_Acc,2024-06-24 13:42:51.695339918,-24.0,-60.0,2.0
1904-01-01 00:15:43.958755918,E4_Acc,2024-06-24 13:42:51.726589918,-24.0,-60.0,2.0
1904-01-01 00:15:43.990005918,E4_Acc,2024-06-24 13:42:51.757839918,-24.0,-60.0,2.0
1904-01-01 00:15:44.021255918,E4_Acc,2024-06-24 13:42:51.789089918,-24.0,-60.0,2.0
1904-01-01 00:15:44.052505918,E4_Acc,2024-06-24 13:42:51.820339918,-24.0,-60.0,2.0
1904-01-01 00:15:44.083765932,E4_Acc,2024-06-24 13:42:51.851599932,-24.0,-60.0,2.0
1904-01-01 00:15:44.115015932,E4_Acc,2024-06-24 13:42:51.882849932,-24.0,-60.0,2.0
1904-01-01 00:15:44.146265932,E4_Acc,2024-06-24 13:42:51.914099932,-23.0,-60.0,2.0
1904-01-01 00:15:44.177515932,E4_Acc,2024-06-24 13:42:51.945349932,-23.0,-60.0,2.0
1904-01-01 00:15:44.208765932,E4_Acc,2024-06-24 13:42:51.976599932,-24.0,-60.0,2.0
1904-01-01 00:15:44.240015932,E4_Acc,2024-06-24 13:42:52.007849932,-23.0,-61.0,2.0
1904-01-01 00:15:44.271265932,E4_Acc,2024-06-24 13:42:52.039099932,-23.0,-61.0,2.0
1904-01-01 00:15:44.302525945,E4_Acc,2024-06-24 13:42:52.070359945,-23.0,-60.0,2.0
1904-01-01 00:15:44.333775945,E4_Acc,2024-06-24 13:42:52.101609945,-24.0,-60.0,2.0
1904-01-01 00:15:44.365025945,E4_Acc,2024-06-24 13:42:52.132859945,-24.0,-61.0,2.0
1904-01-01 00:15:44.396275945,E4_Acc,2024-06-24 13:42:52.164109945,-24.0,-60.0,2.0
1904-01-01 00:15:44.427525945,E4_Acc,2024-06-24 13:42:52.195359945,-24.0,-60.0,2.0
1904-01-01 00:15:44.458775945,E4_Acc,2024-06-24 13:42:52.226609945,-24.0,-60.0,2.0
1904-01-01 00:15:44.490025944,E4_Acc,2024-06-24 13:42:52.257859944,-24.0,-60.0,2.0
1904-01-01 00:15:44.521285959,E4_Acc,2024-06-24 13:42:52.289119959,-24.0,-60.0,2.0
1904-01-01 00:15:44.552535959,E4_Acc,2024-06-24 13:42:52.320369959,-24.0,-61.0,2.0
1904-01-01 00:15:44.583785959,E4_Acc,2024-06-24 13:42:52.351619959,-24.0,-61.0,2.0
1904-01-01 00:15:44.615035959,E4_Acc,2024-06-24 13:42:52.382869959,-23.0,-60.0,2.0
1904-01-01 00:15:44.646285959,E4_Acc,2024-06-24 13:42:52.414119959,-23.0,-60.0,2.0
1904-01-01 00:15:44.677535959,E4_Acc,2024-06-24 13:42:52.445369959,-24.0,-60.0,2.0
1904-01-01 00:15:44.708785959,E4_Acc,2024-06-24 13:42:52.476619959,-24.0,-60.0,2.0
1904-01-01 00:15:44.740045972,E4_Acc,2024-06-24 13:42:52.507879972,-24.0,-61.0,2.0
1904-01-01 00:15:44.771295972,E4_Acc,2024-06-24 13:42:52.539129972,-24.0,-60.0,2.0
1904-01-01 00:15:44.802545972,E4_Acc,2024-06-24 13:42:52.570379972,-24.0,-60.0,2.0
1904-01-01 00:15:44.833795972,E4_Acc,2024-06-24 13:42:52.601629972,-24.0,-60.0,2.0
1904-01-01 00:15:44.865045972,E4_Acc,2024-06-24 13:42:52.632879972,-24.0,-60.0,2.0
1904-01-01 00:15:44.896295972,E4_Acc,2024-06-24 13:42:52.664129972,-24.0,-60.0,2.0
1904-01-01 00:15:44.927545972,E4_Acc,2024-06-24 13:42:52.695379972,-24.0,-60.0,2.0
1904-01-01 00:15:44.958805986,E4_Acc,2024-06-24 13:42:52.726639986,-24.0,-61.0,2.0
1904-01-01 00:15:44.990055986,E4_Acc,2024-06-24 13:42:52.757889986,-23.0,-60.0,2.0
1904-01-01 00:15:45.021305986,E4_Acc,2024-06-24 13:42:52.789139986,-24.0,-60.0,1.0
1904-01-01 00:15:45.052555986,E4_Acc,2024-06-24 13:42:52.820389986,-24.0,-60.0,2.0
1904-01-01 00:15:45.083805986,E4_Acc,2024-06-24 13:42:52.851639986,-23.0,-60.0,2.0
1904-01-01 00:15:45.115055986,E4_Acc,2024-06-24 13:42:52.882889986,-24.0,-60.0,1.0
1904-01-01 00:15:45.146305986,E4_Acc,2024-06-24 13:42:52.914139986,-24.0,-60.0,2.0
1904-01-01 00:15:45.177566000,E4_Acc,2024-06-24 13:42:52.945400000,-24.0,-60.0,1.0
1904-01-01 00:15:45.208816000,E4_Acc,2024-06-24 13:42:52.976650000,-24.0,-60.0,2.0
1904-01-01 00:15:45.240066000,E4_Acc,2024-06-24 13:42:53.007900000,-24.0,-60.0,2.0
1904-01-01 00:15:45.271316000,E4_Acc,2024-06-24 13:42:53.039150000,-24.0,-60.0,2.0
1904-01-01 00:15:45.302566000,E4_Acc,2024-06-24 13:42:53.070400000,-24.0,-60.0,2.0
1904-01-01 00:15:45.333816000,E4_Acc,2024-06-24 13:42:53.101650000,-24.0,-60.0,2.0
1904-01-01 00:15:45.365065999,E4_Acc,2024-06-24 13:42:53.132899999,-24.0,-60.0,2.0
1904-01-01 00:15:45.396326013,E4_Acc,2024-06-24 13:42:53.164160013,-24.0,-60.0,1.0
1904-01-01 00:15:45.427576013,E4_Acc,2024-06-24 13:42:53.195410013,-24.0,-61.0,2.0
1904-01-01 00:15:45.458826013,E4_Acc,2024-06-24 13:42:53.226660013,-24.0,-61.0,2.0
1904-01-01 00:15:45.490076013,E4_Acc,2024-06-24 13:42:53.257910013,-23.0,-60.0,2.0
1904-01-01 00:15:45.521326013,E4_Acc,2024-06-24 13:42:53.289160013,-23.0,-60.0,2.0
1904-01-01 00:15:45.552576013,E4_Acc,2024-06-24 13:42:53.320410013,-24.0,-60.0,1.0
1904-01-01 00:15:45.583826013,E4_Acc,2024-06-24 13:42:53.351660013,-24.0,-61.0,2.0
1904-01-01 00:15:45.615086027,E4_Acc,2024-06-24 13:42:53.382920027,-24.0,-60.0,1.0
1904-01-01 00:15:45.646336027,E4_Acc,2024-06-24 13:42:53.414170027,-24.0,-60.0,2.0
1904-01-01 00:15:45.677586027,E4_Acc,2024-06-24 13:42:53.445420027,-24.0,-61.0,1.0
1904-01-01 00:15:45.708836027,E4_Acc,2024-06-24 13:42:53.476670027,-24.0,-61.0,1.0
1904-01-01 00:15:45.740086027,E4_Acc,2024-06-24 13:42:53.507920027,-23.0,-60.0,2.0
1904-01-01 00:15:45.771336027,E4_Acc,2024-06-24 13:42:53.539170027,-23.0,-60.0,1.0
1904-01-01 00:15:45.802596040,E4_Acc,2024-06-24 13:42:53.570430040,-23.0,-61.0,2.0
1904-01-01 00:15:45.833846040,E4_Acc,2024-06-24 13:42:53.601680040,-23.0,-61.0,1.0
1904-01-01 00:15:45.865096040,E4_Acc,2024-06-24 13:42:53.632930040,-24.0,-61.0,1.0
1904-01-01 00:15:45.896346040,E4_Acc,2024-06-24 13:42:53.664180040,-23.0,-61.0,1.0
1904-01-01 00:15:45.927596040,E4_Acc,2024-06-24 13:42:53.695430040,-23.0,-60.0,1.0
1904-01-01 00:15:45.958846040,E4_Acc,2024-06-24 13:42:53.726680040,-23.0,-60.0,1.0
1904-01-01 00:15:45.990096040,E4_Acc,2024-06-24 13:42:53.757930040,-23.0,-61.0,1.0
1904-01-01 00:15:46.021356054,E4_Acc,2024-06-24 13:42:53.789190054,-23.0,-60.0,1.0
1904-01-01 00:15:46.052606054,E4_Acc,2024-06-24 13:42:53.820440054,-23.0,-60.0,1.0
1904-01-01 00:15:46.083856054,E4_Acc,2024-06-24 13:42:53.851690054,-23.0,-60.0,1.0
1904-01-01 00:15:46.115106054,E4_Acc,2024-06-24 13:42:53.882940054,-23.0,-60.0,1.0
1904-01-01 00:15:46.146356054,E4_Acc,2024-06-24 13:42:53.914190054,-24.0,-60.0,2.0
1904-01-01 00:15:46.177606054,E4_Acc,2024-06-24 13:42:53.945440054,-23.0,-61.0,2.0
1904-01-01 00:15:46.208856054,E4_Acc,2024-06-24 13:42:53.976690054,-23.0,-60.0,1.0
1904-01-01 00:15:46.240116067,E4_Acc,2024-06-24 13:42:54.007950067,-23.0,-61.0,1.0
1904-01-01 00:15:46.271366068,E4_Acc,2024-06-24 13:42:54.039200068,-24.0,-61.0,1.0
1904-01-01 00:15:46.302616068,E4_Acc,2024-06-24 13:42:54.070450068,-23.0,-60.0,2.0
1904-01-01 00:15:46.333866068,E4_Acc,2024-06-24 13:42:54.101700068,-23.0,-60.0,2.0
1904-01-01 00:15:46.365116068,E4_Acc,2024-06-24 13:42:54.132950068,-23.0,-60.0,1.0
1904-01-01 00:15:46.396366068,E4_Acc,2024-06-24 13:42:54.164200068,-24.0,-60.0,1.0
1904-01-01 00:15:46.427616068,E4_Acc,2024-06-24 13:42:54.195450068,-23.0,-61.0,1.0
1904-01-01 00:15:46.458876081,E4_Acc,2024-06-24 13:42:54.226710081,-24.0,-60.0,1.0
1904-01-01 00:15:46.490126081,E4_Acc,2024-06-24 13:42:54.257960081,-24.0,-61.0,2.0
1904-01-01 00:15:46.521376081,E4_Acc,2024-06-24 13:42:54.289210081,-24.0,-60.0,2.0
1904-01-01 00:15:46.552626081,E4_Acc,2024-06-24 13:42:54.320460081,-23.0,-60.0,2.0
1904-01-01 00:15:46.583876081,E4_Acc,2024-06-24 13:42:54.351710081,-23.0,-60.0,2.0
1904-01-01 00:15:46.615126081,E4_Acc,2024-06-24 13:42:54.382960081,-24.0,-61.0,2.0
1904-01-01 00:15:46.646376081,E4_Acc,2024-06-24 13:42:54.414210081,-24.0,-61.0,2.0
1904-01-01 00:15:46.677636095,E4_Acc,2024-06-24 13:42:54.445470095,-23.0,-61.0,2.0
1904-01-01 00:15:46.708886095,E4_Acc,2024-06-24 13:42:54.476720095,-23.0,-60.0,2.0
1904-01-01 00:15:46.740136095,E4_Acc,2024-06-24 13:42:54.507970095,-24.0,-60.0,2.0
1904-01-01 00:15:46.771386095,E4_Acc,2024-06-24 13:42:54.539220095,-23.0,-61.0,2.0
1904-01-01 00:15:46.802636095,E4_Acc,2024-06-24 13:42:54.570470095,-24.0,-61.0,2.0
1904-01-01 00:15:46.833886095,E4_Acc,2024-06-24 13:42:54.601720095,-24.0,-60.0,2.0
1904-01-01 00:15:46.865136095,E4_Acc,2024-06-24 13:42:54.632970095,-23.0,-60.0,2.0
1904-01-01 00:15:46.896396108,E4_Acc,2024-06-24 13:42:54.664230108,-23.0,-60.0,2.0
1904-01-01 00:15:46.927646108,E4_Acc,2024-06-24 13:42:54.695480108,-23.0,-61.0,2.0
1904-01-01 00:15:46.958896108,E4_Acc,2024-06-24 13:42:54.726730108,-23.0,-61.0,2.0
1904-01-01 00:15:46.990146108,E4_Acc,2024-06-24 13:42:54.757980108,-23.0,-61.0,2.0
1904-01-01 00:15:47.021396108,E4_Acc,2024-06-24 13:42:54.789230108,-23.0,-60.0,2.0
1904-01-01 00:15:47.052646108,E4_Acc,2024-06-24 13:42:54.820480108,-23.0,-60.0,2.0
1904-01-01 00:15:47.083896108,E4_Acc,2024-06-24 13:42:54.851730108,-24.0,-61.0,1.0
1904-01-01 00:15:47.115155883,E4_Acc,2024-06-24 13:42:54.882989883,-24.0,-61.0,2.0
1904-01-01 00:15:47.146405883,E4_Acc,2024-06-24 13:42:54.914239883,-23.0,-60.0,2.0
1904-01-01 00:15:47.177655883,E4_Acc,2024-06-24 13:42:54.945489883,-23.0,-60.0,2.0
1904-01-01 00:15:47.208905883,E4_Acc,2024-06-24 13:42:54.976739883,-24.0,-60.0,2.0
1904-01-01 00:15:47.240155883,E4_Acc,2024-06-24 13:42:55.007989883,-23.0,-61.0,2.0
1904-01-01 00:15:47.271405883,E4_Acc,2024-06-24 13:42:55.039239883,-24.0,-61.0,2.0
1904-01-01 00:15:47.302655883,E4_Acc,2024-06-24 13:42:55.070489883,-23.0,-60.0,2.0
1904-01-01 00:15:47.333915897,E4_Acc,2024-06-24 13:42:55.101749897,-23.0,-60.0,2.0
1904-01-01 00:15:47.365165897,E4_Acc,2024-06-24 13:42:55.132999897,-23.0,-61.0,2.0
1904-01-01 00:15:47.396415897,E4_Acc,2024-06-24 13:42:55.164249897,-23.0,-61.0,2.0
1904-01-01 00:15:47.427665897,E4_Acc,2024-06-24 13:42:55.195499897,-23.0,-61.0,2.0
1904-01-01 00:15:47.458915897,E4_Acc,2024-06-24 13:42:55.226749897,-23.0,-60.0,2.0
1904-01-01 00:15:47.490165896,E4_Acc,2024-06-24 13:42:55.257999896,-23.0,-60.0,1.0
1904-01-01 00:15:47.521415897,E4_Acc,2024-06-24 13:42:55.289249897,-23.0,-61.0,1.0
1904-01-01 00:15:47.552675911,E4_Acc,2024-06-24 13:42:55.320509911,-23.0,-61.0,2.0
1904-01-01 00:15:47.583925911,E4_Acc,2024-06-24 13:42:55.351759911,-23.0,-61.0,2.0
1904-01-01 00:15:47.615175911,E4_Acc,2024-06-24 13:42:55.383009911,-23.0,-60.0,1.0
1904-01-01 00:15:47.646425911,E4_Acc,2024-06-24 13:42:55.414259911,-23.0,-60.0,1.0
1904-01-01 00:15:47.677675911,E4_Acc,2024-06-24 13:42:55.445509911,-23.0,-60.0,1.0
1904-01-01 00:15:47.708925911,E4_Acc,2024-06-24 13:42:55.476759911,-23.0,-60.0,1.0
1904-01-01 00:15:47.740175911,E4_Acc,2024-06-24 13:42:55.508009911,-23.0,-61.0,1.0
