Seconds,Stream,E4_Seconds,AccX,AccY,AccZ
1904-01-01 00:20:40.389984955,E4_Acc,2024-06-26 09:27:56.061939955,-64.0,0.0,9.0
1904-01-01 00:20:40.421234955,E4_Acc,2024-06-26 09:27:56.093189955,-64.0,0.0,8.0
1904-01-01 00:20:40.452484955,E4_Acc,2024-06-26 09:27:56.124439955,-64.0,0.0,7.0
1904-01-01 00:20:40.483734955,E4_Acc,2024-06-26 09:27:56.155689955,-64.0,0.0,8.0
1904-01-01 00:20:40.514984955,E4_Acc,2024-06-26 09:27:56.186939955,-63.0,1.0,8.0
1904-01-01 00:20:40.546234955,E4_Acc,2024-06-26 09:27:56.218189955,-64.0,0.0,8.0
1904-01-01 00:20:40.577494968,E4_Acc,2024-06-26 09:27:56.249449968,-64.0,0.0,8.0
1904-01-01 00:20:40.608744968,E4_Acc,2024-06-26 09:27:56.280699968,-63.0,1.0,8.0
1904-01-01 00:20:40.639994968,E4_Acc,2024-06-26 09:27:56.311949968,-64.0,1.0,7.0
1904-01-01 00:20:40.671244968,E4_Acc,2024-06-26 09:27:56.343199968,-64.0,1.0,8.0
1904-01-01 00:20:40.702494968,E4_Acc,2024-06-26 09:27:56.374449968,-64.0,1.0,8.0
1904-01-01 00:20:40.733744968,E4_Acc,2024-06-26 09:27:56.405699968,-63.0,0.0,9.0
1904-01-01 00:20:40.764994968,E4_Acc,2024-06-26 09:27:56.436949968,-65.0,0.0,8.0
1904-01-01 00:20:40.796254982,E4_Acc,2024-06-26 09:27:56.468209982,-64.0,0.0,8.0
1904-01-01 00:20:40.827504982,E4_Acc,2024-06-26 09:27:56.499459982,-63.0,0.0,9.0
1904-01-01 00:20:40.858754981,E4_Acc,2024-06-26 09:27:56.530709981,-64.0,1.0,8.0
1904-01-01 00:20:40.890004982,E4_Acc,2024-06-26 09:27:56.561959982,-64.0,1.0,7.0
1904-01-01 00:20:40.921254982,E4_Acc,2024-06-26 09:27:56.593209982,-64.0,1.0,7.0
1904-01-01 00:20:40.952504982,E4_Acc,2024-06-26 09:27:56.624459982,-63.0,0.0,8.0
1904-01-01 00:20:40.983754982,E4_Acc,2024-06-26 09:27:56.655709982,-64.0,0.0,8.0
1904-01-01 00:20:41.015014995,E4_Acc,2024-06-26 09:27:56.686969995,-64.0,0.0,9.0
1904-01-01 00:20:41.046264995,E4_Acc,2024-06-26 09:27:56.718219995,-64.0,0.0,8.0
1904-01-01 00:20:41.077514995,E4_Acc,2024-06-26 09:27:56.749469995,-64.0,0.0,7.0
1904-01-01 00:20:41.108764995,E4_Acc,2024-06-26 09:27:56.780719995,-64.0,0.0,8.0
1904-01-01 00:20:41.140014995,E4_Acc,2024-06-26 09:27:56.811969995,-65.0,0.0,8.0
1904-01-01 00:20:41.171264995,E4_Acc,2024-06-26 09:27:56.843219995,-69.0,-1.0,4.0
1904-01-01 00:20:41.202525009,E4_Acc,2024-06-26 09:27:56.874480009,-74.0,1.0,0.0
1904-01-01 00:20:41.233775009,E4_Acc,2024-06-26 09:27:56.905730009,-79.0,2.0,1.0
1904-01-01 00:20:41.265025009,E4_Acc,2024-06-26 09:27:56.936980009,-70.0,3.0,10.0
1904-01-01 00:20:41.296275009,E4_Acc,2024-06-26 09:27:56.968230009,-63.0,7.0,20.0
1904-01-01 00:20:41.327525009,E4_Acc,2024-06-26 09:27:56.999480009,-61.0,10.0,21.0
1904-01-01 00:20:41.358775009,E4_Acc,2024-06-26 09:27:57.030730009,-58.0,12.0,22.0
1904-01-01 00:20:41.390025009,E4_Acc,2024-06-26 09:27:57.061980009,-58.0,12.0,21.0
1904-01-01 00:20:41.421285023,E4_Acc,2024-06-26 09:27:57.093240023,-49.0,13.0,24.0
1904-01-01 00:20:41.452535023,E4_Acc,2024-06-26 09:27:57.124490023,-49.0,14.0,22.0
1904-01-01 00:20:41.483785023,E4_Acc,2024-06-26 09:27:57.155740023,-49.0,15.0,23.0
1904-01-01 00:20:41.515035023,E4_Acc,2024-06-26 09:27:57.186990023,-42.0,14.0,28.0
1904-01-01 00:20:41.546285023,E4_Acc,2024-06-26 09:27:57.218240023,-40.0,14.0,28.0
1904-01-01 00:20:41.577535023,E4_Acc,2024-06-26 09:27:57.249490023,-47.0,12.0,31.0
1904-01-01 00:20:41.608785023,E4_Acc,2024-06-26 09:27:57.280740023,-56.0,12.0,35.0
1904-01-01 00:20:41.640045036,E4_Acc,2024-06-26 09:27:57.312000036,-53.0,12.0,35.0
1904-01-01 00:20:41.671295036,E4_Acc,2024-06-26 09:27:57.343250036,-52.0,11.0,39.0
1904-01-01 00:20:41.702545036,E4_Acc,2024-06-26 09:27:57.374500036,-56.0,11.0,39.0
1904-01-01 00:20:41.733795036,E4_Acc,2024-06-26 09:27:57.405750036,-58.0,11.0,35.0
1904-01-01 00:20:41.765045036,E4_Acc,2024-06-26 09:27:57.437000036,-56.0,11.0,33.0
1904-01-01 00:20:41.796295036,E4_Acc,2024-06-26 09:27:57.468250036,-54.0,13.0,34.0
1904-01-01 00:20:41.827545036,E4_Acc,2024-06-26 09:27:57.499500036,-55.0,13.0,31.0
1904-01-01 00:20:41.858805050,E4_Acc,2024-06-26 09:27:57.530760050,-55.0,14.0,31.0
1904-01-01 00:20:41.890055050,E4_Acc,2024-06-26 09:27:57.562010050,-55.0,14.0,32.0
1904-01-01 00:20:41.921305050,E4_Acc,2024-06-26 09:27:57.593260050,-54.0,13.0,31.0
1904-01-01 00:20:41.952555050,E4_Acc,2024-06-26 09:27:57.624510050,-55.0,13.0,30.0
1904-01-01 00:20:41.983805050,E4_Acc,2024-06-26 09:27:57.655760050,-55.0,13.0,30.0
1904-01-01 00:20:42.015055050,E4_Acc,2024-06-26 09:27:57.687010050,-55.0,12.0,30.0
1904-01-01 00:20:42.046305050,E4_Acc,2024-06-26 09:27:57.718260050,-55.0,12.0,31.0
1904-01-01 00:20:42.077565063,E4_Acc,2024-06-26 09:27:57.749520063,-54.0,13.0,30.0
1904-01-01 00:20:42.108815063,E4_Acc,2024-06-26 09:27:57.780770063,-54.0,13.0,31.0
1904-01-01 00:20:42.140065063,E4_Acc,2024-06-26 09:27:57.812020063,-55.0,13.0,32.0
1904-01-01 00:20:42.171315063,E4_Acc,2024-06-26 09:27:57.843270063,-55.0,12.0,31.0
1904-01-01 00:20:42.202565063,E4_Acc,2024-06-26 09:27:57.874520063,-56.0,12.0,33.0
1904-01-01 00:20:42.233815063,E4_Acc,2024-06-26 09:27:57.905770063,-54.0,14.0,32.0
1904-01-01 00:20:42.265065063,E4_Acc,2024-06-26 09:27:57.937020063,-54.0,14.0,31.0
1904-01-01 00:20:42.296325077,E4_Acc,2024-06-26 09:27:57.968280077,-54.0,14.0,32.0
1904-01-01 00:20:42.327575077,E4_Acc,2024-06-26 09:27:57.999530077,-54.0,14.0,32.0
1904-01-01 00:20:42.358825077,E4_Acc,2024-06-26 09:27:58.030780077,-54.0,15.0,31.0
1904-01-01 00:20:42.390075077,E4_Acc,2024-06-26 09:27:58.062030077,-55.0,14.0,32.0
1904-01-01 00:20:42.421325077,E4_Acc,2024-06-26 09:27:58.093280077,-54.0,14.0,32.0
1904-01-01 00:20:42.452575077,E4_Acc,2024-06-26 09:27:58.124530077,-54.0,13.0,31.0
1904-01-01 00:20:42.483825077,E4_Acc,2024-06-26 09:27:58.155780077,-53.0,14.0,32.0
1904-01-01 00:20:42.515085091,E4_Acc,2024-06-26 09:27:58.187040091,-54.0,14.0,31.0
1904-01-01 00:20:42.546335091,E4_Acc,2024-06-26 09:27:58.218290091,-53.0,15.0,30.0
1904-01-01 00:20:42.577585091,E4_Acc,2024-06-26 09:27:58.249540091,-54.0,16.0,30.0
1904-01-01 00:20:42.608835091,E4_Acc,2024-06-26 09:27:58.280790091,-55.0,17.0,30.0
1904-01-01 00:20:42.640085091,E4_Acc,2024-06-26 09:27:58.312040091,-55.0,17.0,30.0
1904-01-01 00:20:42.671335091,E4_Acc,2024-06-26 09:27:58.343290091,-54.0,17.0,31.0
1904-01-01 00:20:42.702585091,E4_Acc,2024-06-26 09:27:58.374540091,-52.0,15.0,32.0
1904-01-01 00:20:42.733845104,E4_Acc,2024-06-26 09:27:58.405800104,-52.0,15.0,32.0
1904-01-01 00:20:42.765095104,E4_Acc,2024-06-26 09:27:58.437050104,-54.0,13.0,32.0
1904-01-01 00:20:42.796345104,E4_Acc,2024-06-26 09:27:58.468300104,-54.0,14.0,32.0
1904-01-01 00:20:42.827595104,E4_Acc,2024-06-26 09:27:58.499550104,-54.0,13.0,33.0
1904-01-01 00:20:42.858845104,E4_Acc,2024-06-26 09:27:58.530800104,-53.0,12.0,33.0
1904-01-01 00:20:42.890095104,E4_Acc,2024-06-26 09:27:58.562050104,-54.0,12.0,33.0
1904-01-01 00:20:42.921345104,E4_Acc,2024-06-26 09:27:58.593300104,-54.0,13.0,32.0
1904-01-01 00:20:42.952605118,E4_Acc,2024-06-26 09:27:58.624560118,-54.0,14.0,31.0
1904-01-01 00:20:42.983855118,E4_Acc,2024-06-26 09:27:58.655810118,-54.0,14.0,31.0
1904-01-01 00:20:43.015105118,E4_Acc,2024-06-26 09:27:58.687060118,-56.0,13.0,31.0
1904-01-01 00:20:43.046355118,E4_Acc,2024-06-26 09:27:58.718310118,-56.0,11.0,31.0
1904-01-01 00:20:43.077605118,E4_Acc,2024-06-26 09:27:58.749560118,-54.0,11.0,31.0
1904-01-01 00:20:43.108855118,E4_Acc,2024-06-26 09:27:58.780810118,-55.0,13.0,31.0
1904-01-01 00:20:43.140105118,E4_Acc,2024-06-26 09:27:58.812060118,-56.0,13.0,29.0
1904-01-01 00:20:43.171364893,E4_Acc,2024-06-26 09:27:58.843319893,-55.0,15.0,30.0
1904-01-01 00:20:43.202614893,E4_Acc,2024-06-26 09:27:58.874569893,-55.0,15.0,31.0
1904-01-01 00:20:43.233864893,E4_Acc,2024-06-26 09:27:58.905819893,-55.0,16.0,31.0
1904-01-01 00:20:43.265114893,E4_Acc,2024-06-26 09:27:58.937069893,-55.0,15.0,31.0
1904-01-01 00:20:43.296364893,E4_Acc,2024-06-26 09:27:58.968319893,-55.0,14.0,30.0
1904-01-01 00:20:43.327614893,E4_Acc,2024-06-26 09:27:58.999569893,-56.0,14.0,30.0
1904-01-01 00:20:43.358864893,E4_Acc,2024-06-26 09:27:59.030819893,-56.0,14.0,30.0
1904-01-01 00:20:43.390124906,E4_Acc,2024-06-26 09:27:59.062079906,-55.0,14.0,30.0
1904-01-01 00:20:43.421374906,E4_Acc,2024-06-26 09:27:59.093329906,-54.0,13.0,31.0
1904-01-01 00:20:43.452624906,E4_Acc,2024-06-26 09:27:59.124579906,-55.0,14.0,31.0
1904-01-01 00:20:43.483874906,E4_Acc,2024-06-26 09:27:59.155829906,-55.0,14.0,30.0
1904-01-01 00:20:43.515124906,E4_Acc,2024-06-26 09:27:59.187079906,-55.0,14.0,30.0
1904-01-01 00:20:43.546374906,E4_Acc,2024-06-26 09:27:59.218329906,-54.0,13.0,30.0
1904-01-01 00:20:43.577634920,E4_Acc,2024-06-26 09:27:59.249589920,-53.0,14.0,31.0
1904-01-01 00:20:43.608884920,E4_Acc,2024-06-26 09:27:59.280839920,-54.0,14.0,30.0
1904-01-01 00:20:43.640134920,E4_Acc,2024-06-26 09:27:59.312089920,-55.0,15.0,31.0
1904-01-01 00:20:43.671384920,E4_Acc,2024-06-26 09:27:59.343339920,-56.0,15.0,31.0
1904-01-01 00:20:43.702634920,E4_Acc,2024-06-26 09:27:59.374589920,-55.0,15.0,30.0
1904-01-01 00:20:43.733884920,E4_Acc,2024-06-26 09:27:59.405839920,-55.0,15.0,30.0
1904-01-01 00:20:43.765134920,E4_Acc,2024-06-26 09:27:59.437089920,-55.0,14.0,30.0
1904-01-01 00:20:43.796394934,E4_Acc,2024-06-26 09:27:59.468349934,-55.0,14.0,30.0
1904-01-01 00:20:43.827644934,E4_Acc,2024-06-26 09:27:59.499599934,-55.0,14.0,30.0
1904-01-01 00:20:43.858894934,E4_Acc,2024-06-26 09:27:59.530849934,-55.0,15.0,30.0
1904-01-01 00:20:43.890144934,E4_Acc,2024-06-26 09:27:59.562099934,-55.0,15.0,30.0
1904-01-01 00:20:43.921394934,E4_Acc,2024-06-26 09:27:59.593349934,-55.0,15.0,30.0
1904-01-01 00:20:43.952644934,E4_Acc,2024-06-26 09:27:59.624599934,-55.0,15.0,30.0
1904-01-01 00:20:43.983894934,E4_Acc,2024-06-26 09:27:59.655849934,-55.0,15.0,30.0
1904-01-01 00:20:44.015154947,E4_Acc,2024-06-26 09:27:59.687109947,-55.0,15.0,30.0
1904-01-01 00:20:44.046404947,E4_Acc,2024-06-26 09:27:59.718359947,-55.0,14.0,29.0
1904-01-01 00:20:44.077654947,E4_Acc,2024-06-26 09:27:59.749609947,-55.0,14.0,29.0
1904-01-01 00:20:44.108904947,E4_Acc,2024-06-26 09:27:59.780859947,-55.0,14.0,30.0
1904-01-01 00:20:44.140154947,E4_Acc,2024-06-26 09:27:59.812109947,-55.0,14.0,29.0
1904-01-01 00:20:44.171404947,E4_Acc,2024-06-26 09:27:59.843359947,-55.0,14.0,30.0
1904-01-01 00:20:44.202654947,E4_Acc,2024-06-26 09:27:59.874609947,-56.0,14.0,30.0
1904-01-01 00:20:44.233914961,E4_Acc,2024-06-26 09:27:59.905869961,-56.0,14.0,30.0
1904-01-01 00:20:44.265164961,E4_Acc,2024-06-26 09:27:59.937119961,-56.0,15.0,31.0
1904-01-01 00:20:44.296414961,E4_Acc,2024-06-26 09:27:59.968369961,-55.0,14.0,28.0
1904-01-01 00:20:44.327664961,E4_Acc,2024-06-26 09:27:59.999619961,-59.0,13.0,26.0
1904-01-01 00:20:44.358914961,E4_Acc,2024-06-26 09:28:00.030869961,-57.0,14.0,32.0
1904-01-01 00:20:44.390164961,E4_Acc,2024-06-26 09:28:00.062119961,-58.0,15.0,31.0
1904-01-01 00:20:44.421414961,E4_Acc,2024-06-26 09:28:00.093369961,-57.0,15.0,30.0
1904-01-01 00:20:44.452674974,E4_Acc,2024-06-26 09:28:00.124629974,-54.0,15.0,29.0
1904-01-01 00:20:44.483924974,E4_Acc,2024-06-26 09:28:00.155879974,-54.0,15.0,29.0
1904-01-01 00:20:44.515174974,E4_Acc,2024-06-26 09:28:00.187129974,-54.0,15.0,29.0
1904-01-01 00:20:44.546424974,E4_Acc,2024-06-26 09:28:00.218379974,-54.0,16.0,28.0
1904-01-01 00:20:44.577674974,E4_Acc,2024-06-26 09:28:00.249629974,-54.0,16.0,27.0
1904-01-01 00:20:44.608924974,E4_Acc,2024-06-26 09:28:00.280879974,-55.0,16.0,27.0
1904-01-01 00:20:44.640174974,E4_Acc,2024-06-26 09:28:00.312129974,-56.0,16.0,27.0
1904-01-01 00:20:44.671434988,E4_Acc,2024-06-26 09:28:00.343389988,-55.0,17.0,26.0
1904-01-01 00:20:44.702684988,E4_Acc,2024-06-26 09:28:00.374639988,-55.0,17.0,25.0
1904-01-01 00:20:44.733934988,E4_Acc,2024-06-26 09:28:00.405889988,-55.0,17.0,26.0
1904-01-01 00:20:44.765184988,E4_Acc,2024-06-26 09:28:00.437139988,-57.0,16.0,26.0
1904-01-01 00:20:44.796434988,E4_Acc,2024-06-26 09:28:00.468389988,-57.0,15.0,27.0
1904-01-01 00:20:44.827684988,E4_Acc,2024-06-26 09:28:00.499639988,-56.0,15.0,29.0
1904-01-01 00:20:44.858934988,E4_Acc,2024-06-26 09:28:00.530889988,-56.0,15.0,29.0
1904-01-01 00:20:44.890195002,E4_Acc,2024-06-26 09:28:00.562150002,-55.0,16.0,29.0
1904-01-01 00:20:44.921445002,E4_Acc,2024-06-26 09:28:00.593400002,-55.0,17.0,27.0
1904-01-01 00:20:44.952695002,E4_Acc,2024-06-26 09:28:00.624650002,-56.0,17.0,27.0
1904-01-01 00:20:44.983945002,E4_Acc,2024-06-26 09:28:00.655900002,-56.0,16.0,25.0
1904-01-01 00:20:45.015195002,E4_Acc,2024-06-26 09:28:00.687150002,-56.0,16.0,25.0
1904-01-01 00:20:45.046445002,E4_Acc,2024-06-26 09:28:00.718400002,-56.0,16.0,27.0
1904-01-01 00:20:45.077695002,E4_Acc,2024-06-26 09:28:00.749650002,-56.0,16.0,28.0
1904-01-01 00:20:45.108955015,E4_Acc,2024-06-26 09:28:00.780910015,-56.0,15.0,27.0
1904-01-01 00:20:45.140205015,E4_Acc,2024-06-26 09:28:00.812160015,-56.0,15.0,28.0
1904-01-01 00:20:45.171455015,E4_Acc,2024-06-26 09:28:00.843410015,-55.0,15.0,30.0
1904-01-01 00:20:45.202705015,E4_Acc,2024-06-26 09:28:00.874660015,-55.0,15.0,29.0
1904-01-01 00:20:45.233955015,E4_Acc,2024-06-26 09:28:00.905910015,-55.0,15.0,28.0
1904-01-01 00:20:45.265205015,E4_Acc,2024-06-26 09:28:00.937160015,-56.0,15.0,29.0
1904-01-01 00:20:45.296455015,E4_Acc,2024-06-26 09:28:00.968410015,-55.0,15.0,29.0
1904-01-01 00:20:45.327715029,E4_Acc,2024-06-26 09:28:00.999670029,-54.0,13.0,32.0
1904-01-01 00:20:45.358965029,E4_Acc,2024-06-26 09:28:01.030920029,-58.0,14.0,32.0
1904-01-01 00:20:45.390215029,E4_Acc,2024-06-26 09:28:01.062170029,-56.0,14.0,30.0
1904-01-01 00:20:45.421465029,E4_Acc,2024-06-26 09:28:01.093420029,-57.0,13.0,30.0
1904-01-01 00:20:45.452715029,E4_Acc,2024-06-26 09:28:01.124670029,-55.0,14.0,30.0
1904-01-01 00:20:45.483965029,E4_Acc,2024-06-26 09:28:01.155920029,-54.0,14.0,29.0
1904-01-01 00:20:45.515215029,E4_Acc,2024-06-26 09:28:01.187170029,-54.0,15.0,30.0
1904-01-01 00:20:45.546475042,E4_Acc,2024-06-26 09:28:01.218430042,-53.0,16.0,29.0
1904-01-01 00:20:45.577725042,E4_Acc,2024-06-26 09:28:01.249680042,-54.0,15.0,30.0
1904-01-01 00:20:45.608975042,E4_Acc,2024-06-26 09:28:01.280930042,-56.0,15.0,30.0
1904-01-01 00:20:45.640225042,E4_Acc,2024-06-26 09:28:01.312180042,-57.0,14.0,29.0
1904-01-01 00:20:45.671475042,E4_Acc,2024-06-26 09:28:01.343430042,-56.0,14.0,29.0
1904-01-01 00:20:45.702725042,E4_Acc,2024-06-26 09:28:01.374680042,-55.0,14.0,30.0
1904-01-01 00:20:45.733975042,E4_Acc,2024-06-26 09:28:01.405930042,-54.0,14.0,30.0
1904-01-01 00:20:45.765235056,E4_Acc,2024-06-26 09:28:01.437190056,-55.0,14.0,29.0
1904-01-01 00:20:45.796485056,E4_Acc,2024-06-26 09:28:01.468440056,-55.0,15.0,30.0
1904-01-01 00:20:45.827735056,E4_Acc,2024-06-26 09:28:01.499690056,-55.0,15.0,29.0
1904-01-01 00:20:45.858985056,E4_Acc,2024-06-26 09:28:01.530940056,-55.0,14.0,30.0
1904-01-01 00:20:45.890235056,E4_Acc,2024-06-26 09:28:01.562190056,-56.0,15.0,29.0
1904-01-01 00:20:45.921485056,E4_Acc,2024-06-26 09:28:01.593440056,-55.0,15.0,29.0
1904-01-01 00:20:45.952745069,E4_Acc,2024-06-26 09:28:01.624700069,-54.0,15.0,31.0
1904-01-01 00:20:45.983995069,E4_Acc,2024-06-26 09:28:01.655950069,-55.0,15.0,31.0
1904-01-01 00:20:46.015245069,E4_Acc,2024-06-26 09:28:01.687200069,-56.0,14.0,30.0
1904-01-01 00:20:46.046495069,E4_Acc,2024-06-26 09:28:01.718450069,-56.0,14.0,29.0
1904-01-01 00:20:46.077745069,E4_Acc,2024-06-26 09:28:01.749700069,-55.0,13.0,29.0
1904-01-01 00:20:46.108995069,E4_Acc,2024-06-26 09:28:01.780950069,-55.0,14.0,29.0
1904-01-01 00:20:46.140245069,E4_Acc,2024-06-26 09:28:01.812200069,-55.0,14.0,29.0
1904-01-01 00:20:46.171505083,E4_Acc,2024-06-26 09:28:01.843460083,-55.0,15.0,29.0
1904-01-01 00:20:46.202755083,E4_Acc,2024-06-26 09:28:01.874710083,-56.0,15.0,29.0
1904-01-01 00:20:46.234005083,E4_Acc,2024-06-26 09:28:01.905960083,-55.0,15.0,30.0
1904-01-01 00:20:46.265255083,E4_Acc,2024-06-26 09:28:01.937210083,-56.0,15.0,30.0
1904-01-01 00:20:46.296505083,E4_Acc,2024-06-26 09:28:01.968460083,-55.0,14.0,30.0
1904-01-01 00:20:46.327755083,E4_Acc,2024-06-26 09:28:01.999710083,-55.0,14.0,30.0
1904-01-01 00:20:46.359005083,E4_Acc,2024-06-26 09:28:02.030960083,-56.0,14.0,29.0
1904-01-01 00:20:46.390265097,E4_Acc,2024-06-26 09:28:02.062220097,-56.0,14.0,29.0
1904-01-01 00:20:46.421515097,E4_Acc,2024-06-26 09:28:02.093470097,-55.0,14.0,30.0
1904-01-01 00:20:46.452765097,E4_Acc,2024-06-26 09:28:02.124720097,-56.0,14.0,29.0
1904-01-01 00:20:46.484015097,E4_Acc,2024-06-26 09:28:02.155970097,-56.0,13.0,28.0
1904-01-01 00:20:46.515265097,E4_Acc,2024-06-26 09:28:02.187220097,-55.0,12.0,29.0
1904-01-01 00:20:46.546515097,E4_Acc,2024-06-26 09:28:02.218470097,-55.0,13.0,30.0
1904-01-01 00:20:46.577765097,E4_Acc,2024-06-26 09:28:02.249720097,-54.0,13.0,31.0
1904-01-01 00:20:46.609025110,E4_Acc,2024-06-26 09:28:02.280980110,-55.0,14.0,31.0
1904-01-01 00:20:46.640275110,E4_Acc,2024-06-26 09:28:02.312230110,-55.0,14.0,31.0
1904-01-01 00:20:46.671525110,E4_Acc,2024-06-26 09:28:02.343480110,-55.0,15.0,31.0
1904-01-01 00:20:46.702775110,E4_Acc,2024-06-26 09:28:02.374730110,-54.0,16.0,32.0
1904-01-01 00:20:46.734025110,E4_Acc,2024-06-26 09:28:02.405980110,-52.0,16.0,31.0
1904-01-01 00:20:46.765275110,E4_Acc,2024-06-26 09:28:02.437230110,-53.0,15.0,32.0
1904-01-01 00:20:46.796525110,E4_Acc,2024-06-26 09:28:02.468480110,-53.0,15.0,32.0
1904-01-01 00:20:46.827784885,E4_Acc,2024-06-26 09:28:02.499739885,-55.0,14.0,31.0
1904-01-01 00:20:46.859034885,E4_Acc,2024-06-26 09:28:02.530989885,-55.0,14.0,32.0
1904-01-01 00:20:46.890284885,E4_Acc,2024-06-26 09:28:02.562239885,-53.0,14.0,32.0
1904-01-01 00:20:46.921534885,E4_Acc,2024-06-26 09:28:02.593489885,-54.0,14.0,31.0
1904-01-01 00:20:46.952784885,E4_Acc,2024-06-26 09:28:02.624739885,-53.0,15.0,32.0
1904-01-01 00:20:46.984034885,E4_Acc,2024-06-26 09:28:02.655989885,-52.0,15.0,33.0
1904-01-01 00:20:47.015284885,E4_Acc,2024-06-26 09:28:02.687239885,-53.0,15.0,32.0
1904-01-01 00:20:47.046544899,E4_Acc,2024-06-26 09:28:02.718499899,-55.0,15.0,32.0
1904-01-01 00:20:47.077794899,E4_Acc,2024-06-26 09:28:02.749749899,-55.0,15.0,32.0
1904-01-01 00:20:47.109044899,E4_Acc,2024-06-26 09:28:02.780999899,-54.0,15.0,32.0
1904-01-01 00:20:47.140294899,E4_Acc,2024-06-26 09:28:02.812249899,-53.0,14.0,32.0
1904-01-01 00:20:47.171544899,E4_Acc,2024-06-26 09:28:02.843499899,-54.0,14.0,32.0
1904-01-01 00:20:47.202794899,E4_Acc,2024-06-26 09:28:02.874749899,-54.0,13.0,32.0
1904-01-01 00:20:47.234044899,E4_Acc,2024-06-26 09:28:02.905999899,-54.0,14.0,32.0
1904-01-01 00:20:47.265304912,E4_Acc,2024-06-26 09:28:02.937259912,-54.0,14.0,32.0
1904-01-01 00:20:47.296554912,E4_Acc,2024-06-26 09:28:02.968509912,-54.0,14.0,32.0
1904-01-01 00:20:47.327804912,E4_Acc,2024-06-26 09:28:02.999759912,-53.0,14.0,32.0
1904-01-01 00:20:47.359054912,E4_Acc,2024-06-26 09:28:03.031009912,-54.0,14.0,32.0
1904-01-01 00:20:47.390304912,E4_Acc,2024-06-26 09:28:03.062259912,-54.0,14.0,32.0
1904-01-01 00:20:47.421554912,E4_Acc,2024-06-26 09:28:03.093509912,-54.0,14.0,32.0
1904-01-01 00:20:47.452804912,E4_Acc,2024-06-26 09:28:03.124759912,-54.0,14.0,32.0
1904-01-01 00:20:47.484064926,E4_Acc,2024-06-26 09:28:03.156019926,-54.0,14.0,32.0
1904-01-01 00:20:47.515314926,E4_Acc,2024-06-26 09:28:03.187269926,-53.0,13.0,31.0
1904-01-01 00:20:47.546564926,E4_Acc,2024-06-26 09:28:03.218519926,-53.0,13.0,32.0
1904-01-01 00:20:47.577814926,E4_Acc,2024-06-26 09:28:03.249769926,-57.0,14.0,30.0
1904-01-01 00:20:47.609064926,E4_Acc,2024-06-26 09:28:03.281019926,-57.0,15.0,32.0
1904-01-01 00:20:47.640314926,E4_Acc,2024-06-26 09:28:03.312269926,-55.0,15.0,31.0
1904-01-01 00:20:47.671564926,E4_Acc,2024-06-26 09:28:03.343519926,-52.0,14.0,29.0
1904-01-01 00:20:47.702824940,E4_Acc,2024-06-26 09:28:03.374779940,-54.0,14.0,30.0
1904-01-01 00:20:47.734074940,E4_Acc,2024-06-26 09:28:03.406029940,-55.0,14.0,30.0
1904-01-01 00:20:47.765324940,E4_Acc,2024-06-26 09:28:03.437279940,-56.0,14.0,30.0
1904-01-01 00:20:47.796574940,E4_Acc,2024-06-26 09:28:03.468529940,-55.0,14.0,30.0
1904-01-01 00:20:47.827824940,E4_Acc,2024-06-26 09:28:03.499779940,-55.0,14.0,31.0
1904-01-01 00:20:47.859074940,E4_Acc,2024-06-26 09:28:03.531029940,-55.0,15.0,30.0
1904-01-01 00:20:47.890324940,E4_Acc,2024-06-26 09:28:03.562279940,-55.0,15.0,30.0
1904-01-01 00:20:47.921584953,E4_Acc,2024-06-26 09:28:03.593539953,-54.0,15.0,30.0
1904-01-01 00:20:47.952834953,E4_Acc,2024-06-26 09:28:03.624789953,-55.0,15.0,30.0
1904-01-01 00:20:47.984084953,E4_Acc,2024-06-26 09:28:03.656039953,-55.0,14.0,30.0
1904-01-01 00:20:48.015334953,E4_Acc,2024-06-26 09:28:03.687289953,-55.0,14.0,31.0
1904-01-01 00:20:48.046584953,E4_Acc,2024-06-26 09:28:03.718539953,-55.0,14.0,32.0
1904-01-01 00:20:48.077834953,E4_Acc,2024-06-26 09:28:03.749789953,-51.0,12.0,36.0
1904-01-01 00:20:48.109084953,E4_Acc,2024-06-26 09:28:03.781039953,-54.0,12.0,36.0
1904-01-01 00:20:48.140344967,E4_Acc,2024-06-26 09:28:03.812299967,-54.0,12.0,33.0
1904-01-01 00:20:48.171594967,E4_Acc,2024-06-26 09:28:03.843549967,-54.0,12.0,34.0
1904-01-01 00:20:48.202844967,E4_Acc,2024-06-26 09:28:03.874799967,-52.0,12.0,33.0
1904-01-01 00:20:48.234094967,E4_Acc,2024-06-26 09:28:03.906049967,-52.0,13.0,33.0
1904-01-01 00:20:48.265344967,E4_Acc,2024-06-26 09:28:03.937299967,-52.0,14.0,32.0
1904-01-01 00:20:48.296594967,E4_Acc,2024-06-26 09:28:03.968549967,-53.0,15.0,31.0
1904-01-01 00:20:48.327844967,E4_Acc,2024-06-26 09:28:03.999799967,-54.0,16.0,31.0
1904-01-01 00:20:48.359104980,E4_Acc,2024-06-26 09:28:04.031059980,-54.0,16.0,31.0
1904-01-01 00:20:48.390354980,E4_Acc,2024-06-26 09:28:04.062309980,-55.0,15.0,31.0
1904-01-01 00:20:48.421604980,E4_Acc,2024-06-26 09:28:04.093559980,-55.0,15.0,32.0
1904-01-01 00:20:48.452854980,E4_Acc,2024-06-26 09:28:04.124809980,-54.0,14.0,33.0
1904-01-01 00:20:48.484104980,E4_Acc,2024-06-26 09:28:04.156059980,-54.0,13.0,32.0
1904-01-01 00:20:48.515354980,E4_Acc,2024-06-26 09:28:04.187309980,-54.0,13.0,33.0
1904-01-01 00:20:48.546614994,E4_Acc,2024-06-26 09:28:04.218569994,-54.0,13.0,32.0
1904-01-01 00:20:48.577864994,E4_Acc,2024-06-26 09:28:04.249819994,-54.0,13.0,32.0
1904-01-01 00:20:48.609114994,E4_Acc,2024-06-26 09:28:04.281069994,-54.0,13.0,32.0
1904-01-01 00:20:48.640364994,E4_Acc,2024-06-26 09:28:04.312319994,-54.0,13.0,31.0
1904-01-01 00:20:48.671614994,E4_Acc,2024-06-26 09:28:04.343569994,-54.0,14.0,32.0
1904-01-01 00:20:48.702864994,E4_Acc,2024-06-26 09:28:04.374819994,-55.0,14.0,31.0
1904-01-01 00:20:48.734114994,E4_Acc,2024-06-26 09:28:04.406069994,-54.0,14.0,32.0
1904-01-01 00:20:48.765375008,E4_Acc,2024-06-26 09:28:04.437330008,-54.0,14.0,32.0
1904-01-01 00:20:48.796625008,E4_Acc,2024-06-26 09:28:04.468580008,-55.0,13.0,32.0
1904-01-01 00:20:48.827875008,E4_Acc,2024-06-26 09:28:04.499830008,-55.0,13.0,32.0
1904-01-01 00:20:48.859125008,E4_Acc,2024-06-26 09:28:04.531080008,-53.0,14.0,33.0
1904-01-01 00:20:48.890375008,E4_Acc,2024-06-26 09:28:04.562330008,-55.0,13.0,30.0
1904-01-01 00:20:48.921625008,E4_Acc,2024-06-26 09:28:04.593580008,-54.0,13.0,32.0
1904-01-01 00:20:48.952875008,E4_Acc,2024-06-26 09:28:04.624830008,-53.0,14.0,32.0
1904-01-01 00:20:48.984135021,E4_Acc,2024-06-26 09:28:04.656090021,-52.0,14.0,33.0
1904-01-01 00:20:49.015385021,E4_Acc,2024-06-26 09:28:04.687340021,-54.0,14.0,33.0
1904-01-01 00:20:49.046635021,E4_Acc,2024-06-26 09:28:04.718590021,-55.0,14.0,32.0
1904-01-01 00:20:49.077885021,E4_Acc,2024-06-26 09:28:04.749840021,-54.0,14.0,32.0
1904-01-01 00:20:49.109135021,E4_Acc,2024-06-26 09:28:04.781090021,-53.0,13.0,32.0
1904-01-01 00:20:49.140385021,E4_Acc,2024-06-26 09:28:04.812340021,-53.0,13.0,32.0
1904-01-01 00:20:49.171635021,E4_Acc,2024-06-26 09:28:04.843590021,-54.0,13.0,32.0
1904-01-01 00:20:49.202895035,E4_Acc,2024-06-26 09:28:04.874850035,-55.0,13.0,32.0
1904-01-01 00:20:49.234145035,E4_Acc,2024-06-26 09:28:04.906100035,-55.0,13.0,32.0
1904-01-01 00:20:49.265395035,E4_Acc,2024-06-26 09:28:04.937350035,-53.0,13.0,33.0
1904-01-01 00:20:49.296645035,E4_Acc,2024-06-26 09:28:04.968600035,-53.0,13.0,33.0
1904-01-01 00:20:49.327895035,E4_Acc,2024-06-26 09:28:04.999850035,-53.0,14.0,33.0
1904-01-01 00:20:49.359145035,E4_Acc,2024-06-26 09:28:05.031100035,-54.0,14.0,31.0
1904-01-01 00:20:49.390395035,E4_Acc,2024-06-26 09:28:05.062350035,-56.0,14.0,30.0
1904-01-01 00:20:49.421655048,E4_Acc,2024-06-26 09:28:05.093610048,-56.0,15.0,33.0
1904-01-01 00:20:49.452905048,E4_Acc,2024-06-26 09:28:05.124860048,-54.0,15.0,31.0
1904-01-01 00:20:49.484155048,E4_Acc,2024-06-26 09:28:05.156110048,-53.0,14.0,30.0
1904-01-01 00:20:49.515405048,E4_Acc,2024-06-26 09:28:05.187360048,-53.0,13.0,31.0
1904-01-01 00:20:49.546655048,E4_Acc,2024-06-26 09:28:05.218610048,-53.0,13.0,32.0
1904-01-01 00:20:49.577905048,E4_Acc,2024-06-26 09:28:05.249860048,-54.0,13.0,32.0
1904-01-01 00:20:49.609155048,E4_Acc,2024-06-26 09:28:05.281110048,-53.0,12.0,33.0
1904-01-01 00:20:49.640415062,E4_Acc,2024-06-26 09:28:05.312370062,-53.0,11.0,33.0
1904-01-01 00:20:49.671665062,E4_Acc,2024-06-26 09:28:05.343620062,-55.0,12.0,36.0
1904-01-01 00:20:49.702915062,E4_Acc,2024-06-26 09:28:05.374870062,-55.0,13.0,34.0
1904-01-01 00:20:49.734165062,E4_Acc,2024-06-26 09:28:05.406120062,-54.0,14.0,33.0
1904-01-01 00:20:49.765415062,E4_Acc,2024-06-26 09:28:05.437370062,-53.0,15.0,32.0
1904-01-01 00:20:49.796665062,E4_Acc,2024-06-26 09:28:05.468620062,-53.0,15.0,32.0
1904-01-01 00:20:49.827915062,E4_Acc,2024-06-26 09:28:05.499870062,-54.0,15.0,32.0
1904-01-01 00:20:49.859175075,E4_Acc,2024-06-26 09:28:05.531130075,-54.0,15.0,31.0
1904-01-01 00:20:49.890425075,E4_Acc,2024-06-26 09:28:05.562380075,-55.0,15.0,31.0
1904-01-01 00:20:49.921675075,E4_Acc,2024-06-26 09:28:05.593630075,-54.0,14.0,32.0
1904-01-01 00:20:49.952925075,E4_Acc,2024-06-26 09:28:05.624880075,-53.0,14.0,32.0
1904-01-01 00:20:49.984175075,E4_Acc,2024-06-26 09:28:05.656130075,-54.0,14.0,32.0
1904-01-01 00:20:50.015425075,E4_Acc,2024-06-26 09:28:05.687380075,-53.0,13.0,34.0
1904-01-01 00:20:50.046675075,E4_Acc,2024-06-26 09:28:05.718630075,-54.0,13.0,33.0
1904-01-01 00:20:50.077935089,E4_Acc,2024-06-26 09:28:05.749890089,-54.0,13.0,33.0
1904-01-01 00:20:50.109185089,E4_Acc,2024-06-26 09:28:05.781140089,-54.0,13.0,33.0
1904-01-01 00:20:50.140435089,E4_Acc,2024-06-26 09:28:05.812390089,-55.0,13.0,32.0
1904-01-01 00:20:50.171685089,E4_Acc,2024-06-26 09:28:05.843640089,-56.0,13.0,31.0
1904-01-01 00:20:50.202935089,E4_Acc,2024-06-26 09:28:05.874890089,-54.0,13.0,32.0
1904-01-01 00:20:50.234185089,E4_Acc,2024-06-26 09:28:05.906140089,-54.0,13.0,32.0
1904-01-01 00:20:50.265435089,E4_Acc,2024-06-26 09:28:05.937390089,-53.0,13.0,32.0
1904-01-01 00:20:50.296695103,E4_Acc,2024-06-26 09:28:05.968650103,-52.0,14.0,33.0
1904-01-01 00:20:50.327945103,E4_Acc,2024-06-26 09:28:05.999900103,-54.0,14.0,31.0
1904-01-01 00:20:50.359195103,E4_Acc,2024-06-26 09:28:06.031150103,-51.0,15.0,34.0
1904-01-01 00:20:50.390445103,E4_Acc,2024-06-26 09:28:06.062400103,-53.0,15.0,33.0
1904-01-01 00:20:50.421695103,E4_Acc,2024-06-26 09:28:06.093650103,-53.0,15.0,33.0
1904-01-01 00:20:50.452945103,E4_Acc,2024-06-26 09:28:06.124900103,-54.0,15.0,32.0
1904-01-01 00:20:50.484195103,E4_Acc,2024-06-26 09:28:06.156150103,-55.0,14.0,31.0
1904-01-01 00:20:50.515455116,E4_Acc,2024-06-26 09:28:06.187410116,-54.0,15.0,33.0
1904-01-01 00:20:50.546705116,E4_Acc,2024-06-26 09:28:06.218660116,-54.0,15.0,32.0
1904-01-01 00:20:50.577955116,E4_Acc,2024-06-26 09:28:06.249910116,-53.0,14.0,33.0
1904-01-01 00:20:50.609205116,E4_Acc,2024-06-26 09:28:06.281160116,-53.0,13.0,32.0
1904-01-01 00:20:50.640455116,E4_Acc,2024-06-26 09:28:06.312410116,-53.0,13.0,33.0
1904-01-01 00:20:50.671705116,E4_Acc,2024-06-26 09:28:06.343660116,-54.0,13.0,33.0
1904-01-01 00:20:50.702955116,E4_Acc,2024-06-26 09:28:06.374910116,-55.0,14.0,32.0
1904-01-01 00:20:50.734214891,E4_Acc,2024-06-26 09:28:06.406169891,-53.0,14.0,32.0
1904-01-01 00:20:50.765464891,E4_Acc,2024-06-26 09:28:06.437419891,-55.0,14.0,31.0
1904-01-01 00:20:50.796714891,E4_Acc,2024-06-26 09:28:06.468669891,-55.0,13.0,32.0
1904-01-01 00:20:50.827964891,E4_Acc,2024-06-26 09:28:06.499919891,-55.0,14.0,31.0
1904-01-01 00:20:50.859214891,E4_Acc,2024-06-26 09:28:06.531169891,-55.0,13.0,30.0
1904-01-01 00:20:50.890464891,E4_Acc,2024-06-26 09:28:06.562419891,-52.0,11.0,32.0
1904-01-01 00:20:50.921724905,E4_Acc,2024-06-26 09:28:06.593679905,-51.0,7.0,37.0
1904-01-01 00:20:50.952974905,E4_Acc,2024-06-26 09:28:06.624929905,-55.0,4.0,37.0
1904-01-01 00:20:50.984224905,E4_Acc,2024-06-26 09:28:06.656179905,-54.0,5.0,36.0
1904-01-01 00:20:51.015474905,E4_Acc,2024-06-26 09:28:06.687429905,-52.0,11.0,35.0
1904-01-01 00:20:51.046724905,E4_Acc,2024-06-26 09:28:06.718679905,-52.0,13.0,33.0
1904-01-01 00:20:51.077974905,E4_Acc,2024-06-26 09:28:06.749929905,-52.0,17.0,31.0
1904-01-01 00:20:51.109224905,E4_Acc,2024-06-26 09:28:06.781179905,-55.0,19.0,31.0
1904-01-01 00:20:51.140484919,E4_Acc,2024-06-26 09:28:06.812439919,-56.0,17.0,31.0
1904-01-01 00:20:51.171734919,E4_Acc,2024-06-26 09:28:06.843689919,-54.0,15.0,30.0
1904-01-01 00:20:51.202984919,E4_Acc,2024-06-26 09:28:06.874939919,-54.0,13.0,31.0
1904-01-01 00:20:51.234234919,E4_Acc,2024-06-26 09:28:06.906189919,-53.0,10.0,34.0
1904-01-01 00:20:51.265484919,E4_Acc,2024-06-26 09:28:06.937439919,-55.0,8.0,34.0
1904-01-01 00:20:51.296734919,E4_Acc,2024-06-26 09:28:06.968689919,-54.0,10.0,34.0
1904-01-01 00:20:51.327984919,E4_Acc,2024-06-26 09:28:06.999939919,-55.0,14.0,32.0
1904-01-01 00:20:51.359244932,E4_Acc,2024-06-26 09:28:07.031199932,-56.0,15.0,31.0
1904-01-01 00:20:51.390494932,E4_Acc,2024-06-26 09:28:07.062449932,-54.0,18.0,29.0
1904-01-01 00:20:51.421744932,E4_Acc,2024-06-26 09:28:07.093699932,-54.0,19.0,27.0
1904-01-01 00:20:51.452994932,E4_Acc,2024-06-26 09:28:07.124949932,-55.0,19.0,28.0
1904-01-01 00:20:51.484244932,E4_Acc,2024-06-26 09:28:07.156199932,-54.0,18.0,30.0
1904-01-01 00:20:51.515494932,E4_Acc,2024-06-26 09:28:07.187449932,-56.0,18.0,29.0
1904-01-01 00:20:51.546744932,E4_Acc,2024-06-26 09:28:07.218699932,-56.0,17.0,31.0
1904-01-01 00:20:51.578004946,E4_Acc,2024-06-26 09:28:07.249959946,-55.0,17.0,31.0
1904-01-01 00:20:51.609254946,E4_Acc,2024-06-26 09:28:07.281209946,-53.0,16.0,32.0
1904-01-01 00:20:51.640504946,E4_Acc,2024-06-26 09:28:07.312459946,-52.0,15.0,34.0
1904-01-01 00:20:51.671754946,E4_Acc,2024-06-26 09:28:07.343709946,-51.0,13.0,35.0
1904-01-01 00:20:51.703004946,E4_Acc,2024-06-26 09:28:07.374959946,-52.0,11.0,35.0
1904-01-01 00:20:51.734254946,E4_Acc,2024-06-26 09:28:07.406209946,-54.0,9.0,35.0
1904-01-01 00:20:51.765504946,E4_Acc,2024-06-26 09:28:07.437459946,-53.0,8.0,35.0
1904-01-01 00:20:51.796764959,E4_Acc,2024-06-26 09:28:07.468719959,-53.0,10.0,33.0
1904-01-01 00:20:51.828014959,E4_Acc,2024-06-26 09:28:07.499969959,-53.0,12.0,33.0
1904-01-01 00:20:51.859264958,E4_Acc,2024-06-26 09:28:07.531219958,-52.0,12.0,33.0
1904-01-01 00:20:51.890514959,E4_Acc,2024-06-26 09:28:07.562469959,-54.0,13.0,32.0
1904-01-01 00:20:51.921764959,E4_Acc,2024-06-26 09:28:07.593719959,-54.0,13.0,32.0
1904-01-01 00:20:51.953014959,E4_Acc,2024-06-26 09:28:07.624969959,-55.0,12.0,33.0
1904-01-01 00:20:51.984264959,E4_Acc,2024-06-26 09:28:07.656219959,-54.0,12.0,34.0
1904-01-01 00:20:52.015524973,E4_Acc,2024-06-26 09:28:07.687479973,-53.0,12.0,34.0
1904-01-01 00:20:52.046774973,E4_Acc,2024-06-26 09:28:07.718729973,-53.0,13.0,33.0
1904-01-01 00:20:52.078024973,E4_Acc,2024-06-26 09:28:07.749979973,-54.0,13.0,33.0
1904-01-01 00:20:52.109274973,E4_Acc,2024-06-26 09:28:07.781229973,-54.0,14.0,33.0
1904-01-01 00:20:52.140524973,E4_Acc,2024-06-26 09:28:07.812479973,-54.0,13.0,33.0
1904-01-01 00:20:52.171774973,E4_Acc,2024-06-26 09:28:07.843729973,-55.0,13.0,33.0
1904-01-01 00:20:52.203024973,E4_Acc,2024-06-26 09:28:07.874979973,-53.0,13.0,33.0
1904-01-01 00:20:52.234284986,E4_Acc,2024-06-26 09:28:07.906239986,-53.0,13.0,33.0
1904-01-01 00:20:52.265534986,E4_Acc,2024-06-26 09:28:07.937489986,-53.0,13.0,33.0
1904-01-01 00:20:52.296784986,E4_Acc,2024-06-26 09:28:07.968739986,-53.0,14.0,32.0
1904-01-01 00:20:52.328034986,E4_Acc,2024-06-26 09:28:07.999989986,-53.0,15.0,32.0
1904-01-01 00:20:52.359284986,E4_Acc,2024-06-26 09:28:08.031239986,-55.0,14.0,33.0
1904-01-01 00:20:52.390534986,E4_Acc,2024-06-26 09:28:08.062489986,-55.0,14.0,33.0
1904-01-01 00:20:52.421784986,E4_Acc,2024-06-26 09:28:08.093739986,-53.0,13.0,33.0
1904-01-01 00:20:52.453045000,E4_Acc,2024-06-26 09:28:08.125000000,-53.0,13.0,33.0
1904-01-01 00:20:52.484295000,E4_Acc,2024-06-26 09:28:08.156250000,-53.0,13.0,33.0
1904-01-01 00:20:52.515545000,E4_Acc,2024-06-26 09:28:08.187500000,-53.0,14.0,33.0
1904-01-01 00:20:52.546795000,E4_Acc,2024-06-26 09:28:08.218750000,-52.0,15.0,32.0
1904-01-01 00:20:52.578045000,E4_Acc,2024-06-26 09:28:08.250000000,-54.0,15.0,32.0
1904-01-01 00:20:52.609295000,E4_Acc,2024-06-26 09:28:08.281250000,-54.0,15.0,32.0
1904-01-01 00:20:52.640545000,E4_Acc,2024-06-26 09:28:08.312500000,-55.0,15.0,33.0
1904-01-01 00:20:52.671805014,E4_Acc,2024-06-26 09:28:08.343760014,-53.0,14.0,32.0
1904-01-01 00:20:52.703055014,E4_Acc,2024-06-26 09:28:08.375010014,-53.0,14.0,32.0
1904-01-01 00:20:52.734305014,E4_Acc,2024-06-26 09:28:08.406260014,-54.0,13.0,33.0
1904-01-01 00:20:52.765555014,E4_Acc,2024-06-26 09:28:08.437510014,-53.0,14.0,33.0
1904-01-01 00:20:52.796805014,E4_Acc,2024-06-26 09:28:08.468760014,-53.0,14.0,33.0
1904-01-01 00:20:52.828055014,E4_Acc,2024-06-26 09:28:08.500010014,-55.0,14.0,31.0
1904-01-01 00:20:52.859305014,E4_Acc,2024-06-26 09:28:08.531260014,-54.0,14.0,32.0
1904-01-01 00:20:52.890565027,E4_Acc,2024-06-26 09:28:08.562520027,-53.0,15.0,33.0
1904-01-01 00:20:52.921815027,E4_Acc,2024-06-26 09:28:08.593770027,-51.0,15.0,33.0
1904-01-01 00:20:52.953065027,E4_Acc,2024-06-26 09:28:08.625020027,-52.0,15.0,33.0
1904-01-01 00:20:52.984315027,E4_Acc,2024-06-26 09:28:08.656270027,-54.0,14.0,34.0
1904-01-01 00:20:53.015565027,E4_Acc,2024-06-26 09:28:08.687520027,-54.0,15.0,33.0
1904-01-01 00:20:53.046815027,E4_Acc,2024-06-26 09:28:08.718770027,-53.0,15.0,33.0
1904-01-01 00:20:53.078075041,E4_Acc,2024-06-26 09:28:08.750030041,-54.0,14.0,33.0
1904-01-01 00:20:53.109325041,E4_Acc,2024-06-26 09:28:08.781280041,-54.0,14.0,33.0
1904-01-01 00:20:53.140575041,E4_Acc,2024-06-26 09:28:08.812530041,-53.0,14.0,32.0
1904-01-01 00:20:53.171825041,E4_Acc,2024-06-26 09:28:08.843780041,-53.0,15.0,32.0
1904-01-01 00:20:53.203075041,E4_Acc,2024-06-26 09:28:08.875030041,-53.0,15.0,33.0
1904-01-01 00:20:53.234325041,E4_Acc,2024-06-26 09:28:08.906280041,-53.0,14.0,32.0
1904-01-01 00:20:53.265575041,E4_Acc,2024-06-26 09:28:08.937530041,-54.0,14.0,33.0
1904-01-01 00:20:53.296835054,E4_Acc,2024-06-26 09:28:08.968790054,-54.0,14.0,33.0
1904-01-01 00:20:53.328085054,E4_Acc,2024-06-26 09:28:09.000040054,-53.0,14.0,32.0
1904-01-01 00:20:53.359335053,E4_Acc,2024-06-26 09:28:09.031290053,-55.0,14.0,31.0
1904-01-01 00:20:53.390585054,E4_Acc,2024-06-26 09:28:09.062540054,-53.0,14.0,33.0
1904-01-01 00:20:53.421835054,E4_Acc,2024-06-26 09:28:09.093790054,-53.0,14.0,33.0
1904-01-01 00:20:53.453085054,E4_Acc,2024-06-26 09:28:09.125040054,-53.0,12.0,32.0
1904-01-01 00:20:53.484335054,E4_Acc,2024-06-26 09:28:09.156290054,-54.0,9.0,34.0
1904-01-01 00:20:53.515595068,E4_Acc,2024-06-26 09:28:09.187550068,-53.0,7.0,36.0
1904-01-01 00:20:53.546845068,E4_Acc,2024-06-26 09:28:09.218800068,-52.0,9.0,36.0
1904-01-01 00:20:53.578095068,E4_Acc,2024-06-26 09:28:09.250050068,-54.0,12.0,34.0
1904-01-01 00:20:53.609345068,E4_Acc,2024-06-26 09:28:09.281300068,-56.0,17.0,30.0
1904-01-01 00:20:53.640595068,E4_Acc,2024-06-26 09:28:09.312550068,-55.0,22.0,26.0
1904-01-01 00:20:53.671845068,E4_Acc,2024-06-26 09:28:09.343800068,-57.0,23.0,24.0
1904-01-01 00:20:53.703095068,E4_Acc,2024-06-26 09:28:09.375050068,-54.0,22.0,26.0
1904-01-01 00:20:53.734355081,E4_Acc,2024-06-26 09:28:09.406310081,-54.0,21.0,29.0
1904-01-01 00:20:53.765605081,E4_Acc,2024-06-26 09:28:09.437560081,-56.0,16.0,30.0
1904-01-01 00:20:53.796855081,E4_Acc,2024-06-26 09:28:09.468810081,-56.0,12.0,33.0
1904-01-01 00:20:53.828105081,E4_Acc,2024-06-26 09:28:09.500060081,-56.0,11.0,32.0
1904-01-01 00:20:53.859355081,E4_Acc,2024-06-26 09:28:09.531310081,-55.0,11.0,32.0
1904-01-01 00:20:53.890605081,E4_Acc,2024-06-26 09:28:09.562560081,-53.0,11.0,32.0
1904-01-01 00:20:53.921855081,E4_Acc,2024-06-26 09:28:09.593810081,-51.0,12.0,32.0
1904-01-01 00:20:53.953115095,E4_Acc,2024-06-26 09:28:09.625070095,-53.0,14.0,31.0
1904-01-01 00:20:53.984365095,E4_Acc,2024-06-26 09:28:09.656320095,-54.0,14.0,31.0
1904-01-01 00:20:54.015615095,E4_Acc,2024-06-26 09:28:09.687570095,-55.0,13.0,31.0
1904-01-01 00:20:54.046865095,E4_Acc,2024-06-26 09:28:09.718820095,-55.0,13.0,32.0
1904-01-01 00:20:54.078115095,E4_Acc,2024-06-26 09:28:09.750070095,-54.0,13.0,31.0
1904-01-01 00:20:54.109365095,E4_Acc,2024-06-26 09:28:09.781320095,-53.0,14.0,31.0
1904-01-01 00:20:54.140615095,E4_Acc,2024-06-26 09:28:09.812570095,-54.0,14.0,32.0
1904-01-01 00:20:54.171875109,E4_Acc,2024-06-26 09:28:09.843830109,-54.0,15.0,32.0
1904-01-01 00:20:54.203125109,E4_Acc,2024-06-26 09:28:09.875080109,-54.0,15.0,31.0
1904-01-01 00:20:54.234375109,E4_Acc,2024-06-26 09:28:09.906330109,-54.0,14.0,32.0
1904-01-01 00:20:54.265625109,E4_Acc,2024-06-26 09:28:09.937580109,-54.0,14.0,32.0
1904-01-01 00:20:54.296875109,E4_Acc,2024-06-26 09:28:09.968830109,-54.0,13.0,32.0
1904-01-01 00:20:54.328125109,E4_Acc,2024-06-26 09:28:10.000080109,-55.0,12.0,32.0
1904-01-01 00:20:54.359375109,E4_Acc,2024-06-26 09:28:10.031330109,-50.0,11.0,34.0
1904-01-01 00:20:54.390634884,E4_Acc,2024-06-26 09:28:10.062589884,-51.0,9.0,34.0
1904-01-01 00:20:54.421884884,E4_Acc,2024-06-26 09:28:10.093839884,-66.0,10.0,35.0
1904-01-01 00:20:54.453134884,E4_Acc,2024-06-26 09:28:10.125089884,-63.0,11.0,39.0
1904-01-01 00:20:54.484384884,E4_Acc,2024-06-26 09:28:10.156339884,-57.0,10.0,35.0
1904-01-01 00:20:54.515634884,E4_Acc,2024-06-26 09:28:10.187589884,-58.0,10.0,30.0
1904-01-01 00:20:54.546884884,E4_Acc,2024-06-26 09:28:10.218839884,-57.0,10.0,30.0
1904-01-01 00:20:54.578134883,E4_Acc,2024-06-26 09:28:10.250089883,-55.0,11.0,26.0
1904-01-01 00:20:54.609394897,E4_Acc,2024-06-26 09:28:10.281349897,-53.0,13.0,25.0
1904-01-01 00:20:54.640644897,E4_Acc,2024-06-26 09:28:10.312599897,-57.0,16.0,24.0
1904-01-01 00:20:54.671894897,E4_Acc,2024-06-26 09:28:10.343849897,-56.0,16.0,24.0
1904-01-01 00:20:54.703144897,E4_Acc,2024-06-26 09:28:10.375099897,-56.0,16.0,24.0
1904-01-01 00:20:54.734394897,E4_Acc,2024-06-26 09:28:10.406349897,-58.0,16.0,24.0
1904-01-01 00:20:54.765644897,E4_Acc,2024-06-26 09:28:10.437599897,-59.0,16.0,27.0
1904-01-01 00:20:54.796894897,E4_Acc,2024-06-26 09:28:10.468849897,-55.0,16.0,26.0
1904-01-01 00:20:54.828154911,E4_Acc,2024-06-26 09:28:10.500109911,-58.0,17.0,21.0
1904-01-01 00:20:54.859404911,E4_Acc,2024-06-26 09:28:10.531359911,-57.0,18.0,21.0
1904-01-01 00:20:54.890654911,E4_Acc,2024-06-26 09:28:10.562609911,-56.0,20.0,20.0
1904-01-01 00:20:54.921904911,E4_Acc,2024-06-26 09:28:10.593859911,-55.0,21.0,21.0
1904-01-01 00:20:54.953154911,E4_Acc,2024-06-26 09:28:10.625109911,-58.0,20.0,20.0
1904-01-01 00:20:54.984404911,E4_Acc,2024-06-26 09:28:10.656359911,-58.0,20.0,25.0
1904-01-01 00:20:55.015654911,E4_Acc,2024-06-26 09:28:10.687609911,-54.0,21.0,29.0
1904-01-01 00:20:55.046914925,E4_Acc,2024-06-26 09:28:10.718869925,-50.0,18.0,28.0
1904-01-01 00:20:55.078164925,E4_Acc,2024-06-26 09:28:10.750119925,-48.0,20.0,28.0
1904-01-01 00:20:55.109414925,E4_Acc,2024-06-26 09:28:10.781369925,-52.0,17.0,30.0
1904-01-01 00:20:55.140664925,E4_Acc,2024-06-26 09:28:10.812619925,-62.0,14.0,31.0
1904-01-01 00:20:55.171914925,E4_Acc,2024-06-26 09:28:10.843869925,-61.0,13.0,29.0
1904-01-01 00:20:55.203164925,E4_Acc,2024-06-26 09:28:10.875119925,-57.0,9.0,30.0
1904-01-01 00:20:55.234414925,E4_Acc,2024-06-26 09:28:10.906369925,-57.0,10.0,30.0
1904-01-01 00:20:55.265674938,E4_Acc,2024-06-26 09:28:10.937629938,-60.0,11.0,29.0
1904-01-01 00:20:55.296924938,E4_Acc,2024-06-26 09:28:10.968879938,-56.0,10.0,26.0
1904-01-01 00:20:55.328174937,E4_Acc,2024-06-26 09:28:11.000129937,-55.0,9.0,26.0
1904-01-01 00:20:55.359424938,E4_Acc,2024-06-26 09:28:11.031379938,-54.0,9.0,28.0
1904-01-01 00:20:55.390674937,E4_Acc,2024-06-26 09:28:11.062629937,-55.0,9.0,30.0
1904-01-01 00:20:55.421924938,E4_Acc,2024-06-26 09:28:11.093879938,-56.0,8.0,29.0
1904-01-01 00:20:55.453174938,E4_Acc,2024-06-26 09:28:11.125129938,-59.0,9.0,30.0
1904-01-01 00:20:55.484434952,E4_Acc,2024-06-26 09:28:11.156389952,-57.0,8.0,30.0
1904-01-01 00:20:55.515684952,E4_Acc,2024-06-26 09:28:11.187639952,-57.0,8.0,28.0
1904-01-01 00:20:55.546934952,E4_Acc,2024-06-26 09:28:11.218889952,-56.0,8.0,28.0
1904-01-01 00:20:55.578184952,E4_Acc,2024-06-26 09:28:11.250139952,-56.0,4.0,29.0
1904-01-01 00:20:55.609434952,E4_Acc,2024-06-26 09:28:11.281389952,-66.0,5.0,33.0
1904-01-01 00:20:55.640684952,E4_Acc,2024-06-26 09:28:11.312639952,-58.0,5.0,33.0
1904-01-01 00:20:55.671934952,E4_Acc,2024-06-26 09:28:11.343889952,-50.0,3.0,37.0
1904-01-01 00:20:55.703194965,E4_Acc,2024-06-26 09:28:11.375149965,-65.0,6.0,30.0
1904-01-01 00:20:55.734444965,E4_Acc,2024-06-26 09:28:11.406399965,-64.0,6.0,26.0
1904-01-01 00:20:55.765694965,E4_Acc,2024-06-26 09:28:11.437649965,-54.0,7.0,27.0
1904-01-01 00:20:55.796944965,E4_Acc,2024-06-26 09:28:11.468899965,-55.0,8.0,25.0
1904-01-01 00:20:55.828194965,E4_Acc,2024-06-26 09:28:11.500149965,-60.0,9.0,23.0
1904-01-01 00:20:55.859444965,E4_Acc,2024-06-26 09:28:11.531399965,-57.0,10.0,24.0
1904-01-01 00:20:55.890704979,E4_Acc,2024-06-26 09:28:11.562659979,-57.0,10.0,23.0
1904-01-01 00:20:55.921954979,E4_Acc,2024-06-26 09:28:11.593909979,-55.0,12.0,26.0
1904-01-01 00:20:55.953204979,E4_Acc,2024-06-26 09:28:11.625159979,-55.0,12.0,26.0
1904-01-01 00:20:55.984454979,E4_Acc,2024-06-26 09:28:11.656409979,-55.0,13.0,27.0
1904-01-01 00:20:56.015704979,E4_Acc,2024-06-26 09:28:11.687659979,-58.0,11.0,27.0
1904-01-01 00:20:56.046954979,E4_Acc,2024-06-26 09:28:11.718909979,-56.0,10.0,29.0
1904-01-01 00:20:56.078204979,E4_Acc,2024-06-26 09:28:11.750159979,-56.0,9.0,28.0
1904-01-01 00:20:56.109464992,E4_Acc,2024-06-26 09:28:11.781419992,-58.0,8.0,29.0
1904-01-01 00:20:56.140714992,E4_Acc,2024-06-26 09:28:11.812669992,-56.0,7.0,30.0
1904-01-01 00:20:56.171964992,E4_Acc,2024-06-26 09:28:11.843919992,-55.0,7.0,31.0
1904-01-01 00:20:56.203214992,E4_Acc,2024-06-26 09:28:11.875169992,-56.0,7.0,31.0
1904-01-01 00:20:56.234464992,E4_Acc,2024-06-26 09:28:11.906419992,-57.0,7.0,30.0
1904-01-01 00:20:56.265714992,E4_Acc,2024-06-26 09:28:11.937669992,-56.0,7.0,30.0
1904-01-01 00:20:56.296964992,E4_Acc,2024-06-26 09:28:11.968919992,-57.0,8.0,29.0
1904-01-01 00:20:56.328225006,E4_Acc,2024-06-26 09:28:12.000180006,-56.0,8.0,29.0
1904-01-01 00:20:56.359475006,E4_Acc,2024-06-26 09:28:12.031430006,-56.0,8.0,28.0
1904-01-01 00:20:56.390725006,E4_Acc,2024-06-26 09:28:12.062680006,-57.0,8.0,29.0
1904-01-01 00:20:56.421975006,E4_Acc,2024-06-26 09:28:12.093930006,-54.0,5.0,35.0
1904-01-01 00:20:56.453225006,E4_Acc,2024-06-26 09:28:12.125180006,-58.0,6.0,36.0
1904-01-01 00:20:56.484475006,E4_Acc,2024-06-26 09:28:12.156430006,-55.0,6.0,32.0
1904-01-01 00:20:56.515725006,E4_Acc,2024-06-26 09:28:12.187680006,-52.0,7.0,32.0
1904-01-01 00:20:56.546985020,E4_Acc,2024-06-26 09:28:12.218940020,-57.0,9.0,31.0
1904-01-01 00:20:56.578235020,E4_Acc,2024-06-26 09:28:12.250190020,-56.0,11.0,28.0
1904-01-01 00:20:56.609485020,E4_Acc,2024-06-26 09:28:12.281440020,-55.0,11.0,26.0
1904-01-01 00:20:56.640735020,E4_Acc,2024-06-26 09:28:12.312690020,-53.0,11.0,26.0
1904-01-01 00:20:56.671985020,E4_Acc,2024-06-26 09:28:12.343940020,-57.0,12.0,25.0
1904-01-01 00:20:56.703235020,E4_Acc,2024-06-26 09:28:12.375190020,-59.0,13.0,27.0
1904-01-01 00:20:56.734485020,E4_Acc,2024-06-26 09:28:12.406440020,-57.0,12.0,27.0
1904-01-01 00:20:56.765745033,E4_Acc,2024-06-26 09:28:12.437700033,-56.0,13.0,27.0
1904-01-01 00:20:56.796995033,E4_Acc,2024-06-26 09:28:12.468950033,-59.0,13.0,27.0
1904-01-01 00:20:56.828245033,E4_Acc,2024-06-26 09:28:12.500200033,-56.0,9.0,28.0
1904-01-01 00:20:56.859495033,E4_Acc,2024-06-26 09:28:12.531450033,-57.0,9.0,28.0
1904-01-01 00:20:56.890745033,E4_Acc,2024-06-26 09:28:12.562700033,-56.0,8.0,29.0
1904-01-01 00:20:56.921995033,E4_Acc,2024-06-26 09:28:12.593950033,-56.0,7.0,29.0
1904-01-01 00:20:56.953245033,E4_Acc,2024-06-26 09:28:12.625200033,-57.0,6.0,31.0
1904-01-01 00:20:56.984505047,E4_Acc,2024-06-26 09:28:12.656460047,-57.0,6.0,31.0
1904-01-01 00:20:57.015755047,E4_Acc,2024-06-26 09:28:12.687710047,-57.0,6.0,31.0
1904-01-01 00:20:57.047005047,E4_Acc,2024-06-26 09:28:12.718960047,-57.0,8.0,30.0
1904-01-01 00:20:57.078255047,E4_Acc,2024-06-26 09:28:12.750210047,-56.0,8.0,29.0
1904-01-01 00:20:57.109505047,E4_Acc,2024-06-26 09:28:12.781460047,-55.0,10.0,29.0
1904-01-01 00:20:57.140755047,E4_Acc,2024-06-26 09:28:12.812710047,-55.0,11.0,29.0
1904-01-01 00:20:57.172005047,E4_Acc,2024-06-26 09:28:12.843960047,-55.0,11.0,30.0
1904-01-01 00:20:57.203265060,E4_Acc,2024-06-26 09:28:12.875220060,-57.0,9.0,31.0
1904-01-01 00:20:57.234515060,E4_Acc,2024-06-26 09:28:12.906470060,-58.0,9.0,35.0
1904-01-01 00:20:57.265765060,E4_Acc,2024-06-26 09:28:12.937720060,-57.0,9.0,32.0
1904-01-01 00:20:57.297015060,E4_Acc,2024-06-26 09:28:12.968970060,-56.0,7.0,32.0
1904-01-01 00:20:57.328265060,E4_Acc,2024-06-26 09:28:13.000220060,-58.0,8.0,32.0
1904-01-01 00:20:57.359515060,E4_Acc,2024-06-26 09:28:13.031470060,-58.0,9.0,31.0
1904-01-01 00:20:57.390765059,E4_Acc,2024-06-26 09:28:13.062720059,-55.0,8.0,30.0
1904-01-01 00:20:57.422025074,E4_Acc,2024-06-26 09:28:13.093980074,-55.0,9.0,29.0
1904-01-01 00:20:57.453275074,E4_Acc,2024-06-26 09:28:13.125230074,-56.0,9.0,29.0
1904-01-01 00:20:57.484525074,E4_Acc,2024-06-26 09:28:13.156480074,-57.0,9.0,29.0
1904-01-01 00:20:57.515775074,E4_Acc,2024-06-26 09:28:13.187730074,-57.0,10.0,29.0
1904-01-01 00:20:57.547025074,E4_Acc,2024-06-26 09:28:13.218980074,-56.0,11.0,29.0
1904-01-01 00:20:57.578275074,E4_Acc,2024-06-26 09:28:13.250230074,-56.0,10.0,29.0
1904-01-01 00:20:57.609525074,E4_Acc,2024-06-26 09:28:13.281480074,-56.0,9.0,30.0
1904-01-01 00:20:57.640785088,E4_Acc,2024-06-26 09:28:13.312740088,-55.0,9.0,31.0
1904-01-01 00:20:57.672035088,E4_Acc,2024-06-26 09:28:13.343990088,-56.0,9.0,31.0
1904-01-01 00:20:57.703285088,E4_Acc,2024-06-26 09:28:13.375240088,-57.0,9.0,31.0
1904-01-01 00:20:57.734535088,E4_Acc,2024-06-26 09:28:13.406490088,-60.0,10.0,30.0
1904-01-01 00:20:57.765785088,E4_Acc,2024-06-26 09:28:13.437740088,-59.0,10.0,28.0
1904-01-01 00:20:57.797035088,E4_Acc,2024-06-26 09:28:13.468990088,-59.0,10.0,29.0
1904-01-01 00:20:57.828285088,E4_Acc,2024-06-26 09:28:13.500240088,-57.0,10.0,28.0
1904-01-01 00:20:57.859545101,E4_Acc,2024-06-26 09:28:13.531500101,-58.0,11.0,28.0
1904-01-01 00:20:57.890795101,E4_Acc,2024-06-26 09:28:13.562750101,-61.0,10.0,25.0
1904-01-01 00:20:57.922045101,E4_Acc,2024-06-26 09:28:13.594000101,-63.0,9.0,23.0
1904-01-01 00:20:57.953295101,E4_Acc,2024-06-26 09:28:13.625250101,-60.0,9.0,23.0
1904-01-01 00:20:57.984545101,E4_Acc,2024-06-26 09:28:13.656500101,-59.0,10.0,21.0
1904-01-01 00:20:58.015795101,E4_Acc,2024-06-26 09:28:13.687750101,-59.0,10.0,20.0
1904-01-01 00:20:58.047045101,E4_Acc,2024-06-26 09:28:13.719000101,-59.0,10.0,20.0
1904-01-01 00:20:58.078305115,E4_Acc,2024-06-26 09:28:13.750260115,-57.0,11.0,20.0
1904-01-01 00:20:58.109555115,E4_Acc,2024-06-26 09:28:13.781510115,-57.0,11.0,20.0
1904-01-01 00:20:58.140805115,E4_Acc,2024-06-26 09:28:13.812760115,-58.0,11.0,20.0
1904-01-01 00:20:58.172055115,E4_Acc,2024-06-26 09:28:13.844010115,-59.0,10.0,21.0
1904-01-01 00:20:58.203305115,E4_Acc,2024-06-26 09:28:13.875260115,-60.0,10.0,22.0
1904-01-01 00:20:58.234555115,E4_Acc,2024-06-26 09:28:13.906510115,-64.0,11.0,18.0
1904-01-01 00:20:58.265814890,E4_Acc,2024-06-26 09:28:13.937769890,-64.0,11.0,17.0
1904-01-01 00:20:58.297064890,E4_Acc,2024-06-26 09:28:13.969019890,-60.0,11.0,22.0
1904-01-01 00:20:58.328314890,E4_Acc,2024-06-26 09:28:14.000269890,-59.0,11.0,22.0
1904-01-01 00:20:58.359564890,E4_Acc,2024-06-26 09:28:14.031519890,-57.0,12.0,21.0
1904-01-01 00:20:58.390814889,E4_Acc,2024-06-26 09:28:14.062769889,-58.0,12.0,19.0
1904-01-01 00:20:58.422064890,E4_Acc,2024-06-26 09:28:14.094019890,-56.0,13.0,19.0
1904-01-01 00:20:58.453314890,E4_Acc,2024-06-26 09:28:14.125269890,-54.0,14.0,19.0
1904-01-01 00:20:58.484574903,E4_Acc,2024-06-26 09:28:14.156529903,-55.0,14.0,18.0
1904-01-01 00:20:58.515824903,E4_Acc,2024-06-26 09:28:14.187779903,-58.0,11.0,17.0
1904-01-01 00:20:58.547074903,E4_Acc,2024-06-26 09:28:14.219029903,-59.0,9.0,21.0
1904-01-01 00:20:58.578324903,E4_Acc,2024-06-26 09:28:14.250279903,-60.0,9.0,22.0
1904-01-01 00:20:58.609574903,E4_Acc,2024-06-26 09:28:14.281529903,-63.0,8.0,23.0
1904-01-01 00:20:58.640824903,E4_Acc,2024-06-26 09:28:14.312779903,-63.0,8.0,24.0
1904-01-01 00:20:58.672074903,E4_Acc,2024-06-26 09:28:14.344029903,-62.0,9.0,25.0
1904-01-01 00:20:58.703334917,E4_Acc,2024-06-26 09:28:14.375289917,-60.0,9.0,26.0
1904-01-01 00:20:58.734584917,E4_Acc,2024-06-26 09:28:14.406539917,-61.0,10.0,24.0
1904-01-01 00:20:58.765834917,E4_Acc,2024-06-26 09:28:14.437789917,-63.0,10.0,21.0
1904-01-01 00:20:58.797084917,E4_Acc,2024-06-26 09:28:14.469039917,-61.0,10.0,21.0
1904-01-01 00:20:58.828334917,E4_Acc,2024-06-26 09:28:14.500289917,-60.0,9.0,19.0
1904-01-01 00:20:58.859584917,E4_Acc,2024-06-26 09:28:14.531539917,-58.0,9.0,18.0
1904-01-01 00:20:58.890834917,E4_Acc,2024-06-26 09:28:14.562789917,-60.0,9.0,18.0
1904-01-01 00:20:58.922094931,E4_Acc,2024-06-26 09:28:14.594049931,-61.0,9.0,18.0
1904-01-01 00:20:58.953344931,E4_Acc,2024-06-26 09:28:14.625299931,-59.0,11.0,16.0
1904-01-01 00:20:58.984594931,E4_Acc,2024-06-26 09:28:14.656549931,-61.0,13.0,15.0
1904-01-01 00:20:59.015844931,E4_Acc,2024-06-26 09:28:14.687799931,-61.0,16.0,14.0
1904-01-01 00:20:59.047094931,E4_Acc,2024-06-26 09:28:14.719049931,-62.0,16.0,14.0
1904-01-01 00:20:59.078344931,E4_Acc,2024-06-26 09:28:14.750299931,-61.0,17.0,14.0
1904-01-01 00:20:59.109594931,E4_Acc,2024-06-26 09:28:14.781549931,-59.0,17.0,16.0
1904-01-01 00:20:59.140854944,E4_Acc,2024-06-26 09:28:14.812809944,-59.0,16.0,15.0
1904-01-01 00:20:59.172104944,E4_Acc,2024-06-26 09:28:14.844059944,-60.0,17.0,16.0
1904-01-01 00:20:59.203354944,E4_Acc,2024-06-26 09:28:14.875309944,-61.0,16.0,16.0
1904-01-01 00:20:59.234604944,E4_Acc,2024-06-26 09:28:14.906559944,-62.0,16.0,16.0
1904-01-01 00:20:59.265854944,E4_Acc,2024-06-26 09:28:14.937809944,-60.0,16.0,15.0
1904-01-01 00:20:59.297104944,E4_Acc,2024-06-26 09:28:14.969059944,-60.0,17.0,14.0
1904-01-01 00:20:59.328354944,E4_Acc,2024-06-26 09:28:15.000309944,-61.0,18.0,16.0
1904-01-01 00:20:59.359614958,E4_Acc,2024-06-26 09:28:15.031569958,-61.0,18.0,16.0
1904-01-01 00:20:59.390864957,E4_Acc,2024-06-26 09:28:15.062819957,-61.0,18.0,16.0
1904-01-01 00:20:59.422114958,E4_Acc,2024-06-26 09:28:15.094069958,-57.0,18.0,19.0
1904-01-01 00:20:59.453364958,E4_Acc,2024-06-26 09:28:15.125319958,-58.0,18.0,19.0
1904-01-01 00:20:59.484614958,E4_Acc,2024-06-26 09:28:15.156569958,-58.0,19.0,18.0
1904-01-01 00:20:59.515864958,E4_Acc,2024-06-26 09:28:15.187819958,-57.0,19.0,18.0
1904-01-01 00:20:59.547114958,E4_Acc,2024-06-26 09:28:15.219069958,-58.0,19.0,19.0
1904-01-01 00:20:59.578374970,E4_Acc,2024-06-26 09:28:15.250329970,-59.0,17.0,18.0
1904-01-01 00:20:59.609624971,E4_Acc,2024-06-26 09:28:15.281579971,-60.0,17.0,19.0
1904-01-01 00:20:59.640874971,E4_Acc,2024-06-26 09:28:15.312829971,-56.0,16.0,20.0
1904-01-01 00:20:59.672124971,E4_Acc,2024-06-26 09:28:15.344079971,-56.0,16.0,21.0
1904-01-01 00:20:59.703374971,E4_Acc,2024-06-26 09:28:15.375329971,-57.0,17.0,21.0
1904-01-01 00:20:59.734624971,E4_Acc,2024-06-26 09:28:15.406579971,-57.0,19.0,22.0
1904-01-01 00:20:59.765874971,E4_Acc,2024-06-26 09:28:15.437829971,-58.0,19.0,22.0
1904-01-01 00:20:59.797134985,E4_Acc,2024-06-26 09:28:15.469089985,-56.0,19.0,24.0
1904-01-01 00:20:59.828384985,E4_Acc,2024-06-26 09:28:15.500339985,-55.0,18.0,24.0
1904-01-01 00:20:59.859634985,E4_Acc,2024-06-26 09:28:15.531589985,-57.0,17.0,23.0
1904-01-01 00:20:59.890884985,E4_Acc,2024-06-26 09:28:15.562839985,-57.0,16.0,23.0
1904-01-01 00:20:59.922134985,E4_Acc,2024-06-26 09:28:15.594089985,-56.0,15.0,23.0
1904-01-01 00:20:59.953384985,E4_Acc,2024-06-26 09:28:15.625339985,-59.0,13.0,22.0
1904-01-01 00:20:59.984634985,E4_Acc,2024-06-26 09:28:15.656589985,-57.0,14.0,22.0
1904-01-01 00:21:00.015894998,E4_Acc,2024-06-26 09:28:15.687849998,-57.0,14.0,22.0
1904-01-01 00:21:00.047144998,E4_Acc,2024-06-26 09:28:15.719099998,-55.0,15.0,24.0
1904-01-01 00:21:00.078394998,E4_Acc,2024-06-26 09:28:15.750349998,-57.0,15.0,24.0
1904-01-01 00:21:00.109644998,E4_Acc,2024-06-26 09:28:15.781599998,-57.0,16.0,25.0
1904-01-01 00:21:00.140894998,E4_Acc,2024-06-26 09:28:15.812849998,-56.0,17.0,26.0
1904-01-01 00:21:00.172144998,E4_Acc,2024-06-26 09:28:15.844099998,-56.0,17.0,26.0
1904-01-01 00:21:00.203394998,E4_Acc,2024-06-26 09:28:15.875349998,-58.0,18.0,25.0
1904-01-01 00:21:00.234655012,E4_Acc,2024-06-26 09:28:15.906610012,-58.0,18.0,25.0
1904-01-01 00:21:00.265905012,E4_Acc,2024-06-26 09:28:15.937860012,-57.0,17.0,26.0
1904-01-01 00:21:00.297155012,E4_Acc,2024-06-26 09:28:15.969110012,-57.0,16.0,26.0
1904-01-01 00:21:00.328405012,E4_Acc,2024-06-26 09:28:16.000360012,-58.0,16.0,26.0
1904-01-01 00:21:00.359655012,E4_Acc,2024-06-26 09:28:16.031610012,-57.0,17.0,26.0
1904-01-01 00:21:00.390905012,E4_Acc,2024-06-26 09:28:16.062860012,-57.0,17.0,26.0
1904-01-01 00:21:00.422165026,E4_Acc,2024-06-26 09:28:16.094120026,-58.0,17.0,26.0
1904-01-01 00:21:00.453415026,E4_Acc,2024-06-26 09:28:16.125370026,-57.0,17.0,28.0
1904-01-01 00:21:00.484665026,E4_Acc,2024-06-26 09:28:16.156620026,-56.0,18.0,28.0
1904-01-01 00:21:00.515915026,E4_Acc,2024-06-26 09:28:16.187870026,-60.0,18.0,27.0
1904-01-01 00:21:00.547165026,E4_Acc,2024-06-26 09:28:16.219120026,-59.0,18.0,28.0
1904-01-01 00:21:00.578415026,E4_Acc,2024-06-26 09:28:16.250370026,-56.0,21.0,29.0
1904-01-01 00:21:00.609665026,E4_Acc,2024-06-26 09:28:16.281620026,-57.0,23.0,29.0
1904-01-01 00:21:00.640925039,E4_Acc,2024-06-26 09:28:16.312880039,-56.0,25.0,30.0
1904-01-01 00:21:00.672175039,E4_Acc,2024-06-26 09:28:16.344130039,-54.0,27.0,28.0
1904-01-01 00:21:00.703425039,E4_Acc,2024-06-26 09:28:16.375380039,-53.0,28.0,28.0
1904-01-01 00:21:00.734675039,E4_Acc,2024-06-26 09:28:16.406630039,-51.0,28.0,28.0
1904-01-01 00:21:00.765925039,E4_Acc,2024-06-26 09:28:16.437880039,-53.0,29.0,28.0
1904-01-01 00:21:00.797175039,E4_Acc,2024-06-26 09:28:16.469130039,-52.0,28.0,29.0
1904-01-01 00:21:00.828425039,E4_Acc,2024-06-26 09:28:16.500380039,-52.0,29.0,31.0
1904-01-01 00:21:00.859685052,E4_Acc,2024-06-26 09:28:16.531640052,-51.0,29.0,29.0
1904-01-01 00:21:00.890935053,E4_Acc,2024-06-26 09:28:16.562890053,-50.0,30.0,30.0
1904-01-01 00:21:00.922185053,E4_Acc,2024-06-26 09:28:16.594140053,-51.0,29.0,32.0
1904-01-01 00:21:00.953435053,E4_Acc,2024-06-26 09:28:16.625390053,-47.0,30.0,34.0
1904-01-01 00:21:00.984685053,E4_Acc,2024-06-26 09:28:16.656640053,-49.0,31.0,36.0
1904-01-01 00:21:01.015935053,E4_Acc,2024-06-26 09:28:16.687890053,-45.0,30.0,37.0
1904-01-01 00:21:01.047185053,E4_Acc,2024-06-26 09:28:16.719140053,-41.0,30.0,36.0
1904-01-01 00:21:01.078445066,E4_Acc,2024-06-26 09:28:16.750400066,-44.0,28.0,35.0
1904-01-01 00:21:01.109695066,E4_Acc,2024-06-26 09:28:16.781650066,-47.0,28.0,35.0
1904-01-01 00:21:01.140945066,E4_Acc,2024-06-26 09:28:16.812900066,-49.0,29.0,37.0
1904-01-01 00:21:01.172195066,E4_Acc,2024-06-26 09:28:16.844150066,-47.0,28.0,37.0
1904-01-01 00:21:01.203445066,E4_Acc,2024-06-26 09:28:16.875400066,-44.0,28.0,38.0
1904-01-01 00:21:01.234695066,E4_Acc,2024-06-26 09:28:16.906650066,-45.0,29.0,41.0
1904-01-01 00:21:01.265945066,E4_Acc,2024-06-26 09:28:16.937900066,-43.0,30.0,40.0
1904-01-01 00:21:01.297205080,E4_Acc,2024-06-26 09:28:16.969160080,-38.0,30.0,39.0
1904-01-01 00:21:01.328455080,E4_Acc,2024-06-26 09:28:17.000410080,-37.0,35.0,41.0
1904-01-01 00:21:01.359705080,E4_Acc,2024-06-26 09:28:17.031660080,-38.0,38.0,42.0
1904-01-01 00:21:01.390955079,E4_Acc,2024-06-26 09:28:17.062910079,-38.0,43.0,43.0
1904-01-01 00:21:01.422205080,E4_Acc,2024-06-26 09:28:17.094160080,-34.0,44.0,42.0
1904-01-01 00:21:01.453455080,E4_Acc,2024-06-26 09:28:17.125410080,-30.0,38.0,39.0
1904-01-01 00:21:01.484705080,E4_Acc,2024-06-26 09:28:17.156660080,-32.0,29.0,38.0
1904-01-01 00:21:01.515965094,E4_Acc,2024-06-26 09:28:17.187920094,-36.0,27.0,41.0
1904-01-01 00:21:01.547215094,E4_Acc,2024-06-26 09:28:17.219170094,-34.0,20.0,45.0
1904-01-01 00:21:01.578465093,E4_Acc,2024-06-26 09:28:17.250420093,-34.0,22.0,48.0
1904-01-01 00:21:01.609715094,E4_Acc,2024-06-26 09:28:17.281670094,-32.0,20.0,55.0
1904-01-01 00:21:01.640965094,E4_Acc,2024-06-26 09:28:17.312920094,-25.0,24.0,57.0
1904-01-01 00:21:01.672215094,E4_Acc,2024-06-26 09:28:17.344170094,-22.0,26.0,54.0
1904-01-01 00:21:01.703465094,E4_Acc,2024-06-26 09:28:17.375420094,-22.0,22.0,41.0
1904-01-01 00:21:01.734725107,E4_Acc,2024-06-26 09:28:17.406680107,-28.0,22.0,39.0
1904-01-01 00:21:01.765975107,E4_Acc,2024-06-26 09:28:17.437930107,-31.0,16.0,42.0
1904-01-01 00:21:01.797225107,E4_Acc,2024-06-26 09:28:17.469180107,-32.0,13.0,45.0
1904-01-01 00:21:01.828475107,E4_Acc,2024-06-26 09:28:17.500430107,-32.0,14.0,47.0
1904-01-01 00:21:01.859725107,E4_Acc,2024-06-26 09:28:17.531680107,-39.0,14.0,46.0
1904-01-01 00:21:01.890975107,E4_Acc,2024-06-26 09:28:17.562930107,-41.0,17.0,46.0
1904-01-01 00:21:01.922225107,E4_Acc,2024-06-26 09:28:17.594180107,-49.0,20.0,46.0
1904-01-01 00:21:01.953484882,E4_Acc,2024-06-26 09:28:17.625439882,-41.0,24.0,55.0
1904-01-01 00:21:01.984734882,E4_Acc,2024-06-26 09:28:17.656689882,-39.0,24.0,56.0
1904-01-01 00:21:02.015984882,E4_Acc,2024-06-26 09:28:17.687939882,-31.0,25.0,51.0
1904-01-01 00:21:02.047234882,E4_Acc,2024-06-26 09:28:17.719189882,-26.0,27.0,47.0
1904-01-01 00:21:02.078484882,E4_Acc,2024-06-26 09:28:17.750439882,-21.0,29.0,39.0
1904-01-01 00:21:02.109734882,E4_Acc,2024-06-26 09:28:17.781689882,-21.0,32.0,34.0
1904-01-01 00:21:02.140984882,E4_Acc,2024-06-26 09:28:17.812939882,-24.0,36.0,34.0
1904-01-01 00:21:02.172244896,E4_Acc,2024-06-26 09:28:17.844199896,-26.0,36.0,36.0
1904-01-01 00:21:02.203494896,E4_Acc,2024-06-26 09:28:17.875449896,-28.0,35.0,36.0
1904-01-01 00:21:02.234744896,E4_Acc,2024-06-26 09:28:17.906699896,-35.0,38.0,38.0
1904-01-01 00:21:02.265994896,E4_Acc,2024-06-26 09:28:17.937949896,-34.0,50.0,41.0
1904-01-01 00:21:02.297244896,E4_Acc,2024-06-26 09:28:17.969199896,-30.0,52.0,43.0
1904-01-01 00:21:02.328494896,E4_Acc,2024-06-26 09:28:18.000449896,-33.0,44.0,41.0
1904-01-01 00:21:02.359744896,E4_Acc,2024-06-26 09:28:18.031699896,-39.0,34.0,37.0
1904-01-01 00:21:02.391004908,E4_Acc,2024-06-26 09:28:18.062959908,-40.0,32.0,39.0
1904-01-01 00:21:02.422254909,E4_Acc,2024-06-26 09:28:18.094209909,-33.0,34.0,43.0
1904-01-01 00:21:02.453504909,E4_Acc,2024-06-26 09:28:18.125459909,-32.0,32.0,43.0
1904-01-01 00:21:02.484754909,E4_Acc,2024-06-26 09:28:18.156709909,-35.0,27.0,39.0
1904-01-01 00:21:02.516004909,E4_Acc,2024-06-26 09:28:18.187959909,-36.0,22.0,35.0
1904-01-01 00:21:02.547254909,E4_Acc,2024-06-26 09:28:18.219209909,-33.0,23.0,35.0
1904-01-01 00:21:02.578504908,E4_Acc,2024-06-26 09:28:18.250459908,-29.0,19.0,33.0
1904-01-01 00:21:02.609764923,E4_Acc,2024-06-26 09:28:18.281719923,-28.0,21.0,34.0
1904-01-01 00:21:02.641014923,E4_Acc,2024-06-26 09:28:18.312969923,-34.0,12.0,32.0
1904-01-01 00:21:02.672264923,E4_Acc,2024-06-26 09:28:18.344219923,-42.0,21.0,34.0
1904-01-01 00:21:02.703514923,E4_Acc,2024-06-26 09:28:18.375469923,-47.0,16.0,35.0
1904-01-01 00:21:02.734764923,E4_Acc,2024-06-26 09:28:18.406719923,-55.0,11.0,30.0
1904-01-01 00:21:02.766014923,E4_Acc,2024-06-26 09:28:18.437969923,-56.0,16.0,27.0
1904-01-01 00:21:02.797264923,E4_Acc,2024-06-26 09:28:18.469219923,-56.0,7.0,24.0
1904-01-01 00:21:02.828524937,E4_Acc,2024-06-26 09:28:18.500479937,-55.0,10.0,31.0
1904-01-01 00:21:02.859774937,E4_Acc,2024-06-26 09:28:18.531729937,-63.0,10.0,36.0
1904-01-01 00:21:02.891024937,E4_Acc,2024-06-26 09:28:18.562979937,-76.0,3.0,39.0
1904-01-01 00:21:02.922274937,E4_Acc,2024-06-26 09:28:18.594229937,-68.0,3.0,42.0
1904-01-01 00:21:02.953524937,E4_Acc,2024-06-26 09:28:18.625479937,-66.0,-1.0,48.0
1904-01-01 00:21:02.984774937,E4_Acc,2024-06-26 09:28:18.656729937,-81.0,1.0,55.0
1904-01-01 00:21:03.016024937,E4_Acc,2024-06-26 09:28:18.687979937,-104.0,-17.0,31.0
1904-01-01 00:21:03.047284950,E4_Acc,2024-06-26 09:28:18.719239950,-60.0,-9.0,27.0
1904-01-01 00:21:03.078534950,E4_Acc,2024-06-26 09:28:18.750489950,-61.0,-13.0,20.0
1904-01-01 00:21:03.109784950,E4_Acc,2024-06-26 09:28:18.781739950,-68.0,-2.0,11.0
1904-01-01 00:21:03.141034950,E4_Acc,2024-06-26 09:28:18.812989950,-73.0,5.0,9.0
1904-01-01 00:21:03.172284950,E4_Acc,2024-06-26 09:28:18.844239950,-67.0,10.0,9.0
1904-01-01 00:21:03.203534950,E4_Acc,2024-06-26 09:28:18.875489950,-79.0,12.0,6.0
1904-01-01 00:21:03.234794964,E4_Acc,2024-06-26 09:28:18.906749964,-76.0,15.0,10.0
1904-01-01 00:21:03.266044964,E4_Acc,2024-06-26 09:28:18.937999964,-70.0,17.0,14.0
1904-01-01 00:21:03.297294964,E4_Acc,2024-06-26 09:28:18.969249964,-66.0,13.0,12.0
1904-01-01 00:21:03.328544964,E4_Acc,2024-06-26 09:28:19.000499964,-63.0,11.0,10.0
1904-01-01 00:21:03.359794964,E4_Acc,2024-06-26 09:28:19.031749964,-60.0,10.0,5.0
1904-01-01 00:21:03.391044964,E4_Acc,2024-06-26 09:28:19.062999964,-59.0,10.0,2.0
1904-01-01 00:21:03.422294964,E4_Acc,2024-06-26 09:28:19.094249964,-54.0,7.0,1.0
1904-01-01 00:21:03.453554977,E4_Acc,2024-06-26 09:28:19.125509977,-50.0,8.0,0.0
1904-01-01 00:21:03.484804977,E4_Acc,2024-06-26 09:28:19.156759977,-55.0,4.0,-3.0
1904-01-01 00:21:03.516054977,E4_Acc,2024-06-26 09:28:19.188009977,-61.0,2.0,-7.0
1904-01-01 00:21:03.547304977,E4_Acc,2024-06-26 09:28:19.219259977,-60.0,16.0,-3.0
1904-01-01 00:21:03.578554977,E4_Acc,2024-06-26 09:28:19.250509977,-59.0,21.0,-2.0
1904-01-01 00:21:03.609804977,E4_Acc,2024-06-26 09:28:19.281759977,-56.0,22.0,2.0
1904-01-01 00:21:03.641054977,E4_Acc,2024-06-26 09:28:19.313009977,-64.0,23.0,-7.0
1904-01-01 00:21:03.672314991,E4_Acc,2024-06-26 09:28:19.344269991,-67.0,23.0,-9.0
1904-01-01 00:21:03.703564991,E4_Acc,2024-06-26 09:28:19.375519991,-63.0,22.0,0.0
1904-01-01 00:21:03.734814991,E4_Acc,2024-06-26 09:28:19.406769991,-60.0,21.0,-3.0
1904-01-01 00:21:03.766064991,E4_Acc,2024-06-26 09:28:19.438019991,-60.0,15.0,-8.0
1904-01-01 00:21:03.797314991,E4_Acc,2024-06-26 09:28:19.469269991,-61.0,14.0,-7.0
1904-01-01 00:21:03.828564991,E4_Acc,2024-06-26 09:28:19.500519991,-58.0,17.0,-13.0
1904-01-01 00:21:03.859814991,E4_Acc,2024-06-26 09:28:19.531769991,-61.0,20.0,-8.0
1904-01-01 00:21:03.891075005,E4_Acc,2024-06-26 09:28:19.563030005,-60.0,20.0,-5.0
1904-01-01 00:21:03.922325005,E4_Acc,2024-06-26 09:28:19.594280005,-52.0,18.0,-12.0
1904-01-01 00:21:03.953575005,E4_Acc,2024-06-26 09:28:19.625530005,-65.0,12.0,-5.0
1904-01-01 00:21:03.984825005,E4_Acc,2024-06-26 09:28:19.656780005,-63.0,7.0,17.0
1904-01-01 00:21:04.016075005,E4_Acc,2024-06-26 09:28:19.688030005,-60.0,1.0,6.0
1904-01-01 00:21:04.047325005,E4_Acc,2024-06-26 09:28:19.719280005,-63.0,-7.0,-3.0
1904-01-01 00:21:04.078575005,E4_Acc,2024-06-26 09:28:19.750530005,-58.0,-13.0,17.0
1904-01-01 00:21:04.109835018,E4_Acc,2024-06-26 09:28:19.781790018,-55.0,-15.0,15.0
1904-01-01 00:21:04.141085018,E4_Acc,2024-06-26 09:28:19.813040018,-56.0,-20.0,-1.0
1904-01-01 00:21:04.172335018,E4_Acc,2024-06-26 09:28:19.844290018,-50.0,-19.0,-19.0
1904-01-01 00:21:04.203585018,E4_Acc,2024-06-26 09:28:19.875540018,-47.0,-16.0,-25.0
1904-01-01 00:21:04.234835018,E4_Acc,2024-06-26 09:28:19.906790018,-58.0,-17.0,-33.0
1904-01-01 00:21:04.266085018,E4_Acc,2024-06-26 09:28:19.938040018,-70.0,-17.0,-46.0
1904-01-01 00:21:04.297335018,E4_Acc,2024-06-26 09:28:19.969290018,-54.0,-13.0,-30.0
1904-01-01 00:21:04.328595032,E4_Acc,2024-06-26 09:28:20.000550032,-60.0,-34.0,-9.0
1904-01-01 00:21:04.359845032,E4_Acc,2024-06-26 09:28:20.031800032,-70.0,-39.0,-11.0
1904-01-01 00:21:04.391095032,E4_Acc,2024-06-26 09:28:20.063050032,-83.0,-46.0,-16.0
1904-01-01 00:21:04.422345032,E4_Acc,2024-06-26 09:28:20.094300032,-81.0,-46.0,-13.0
1904-01-01 00:21:04.453595032,E4_Acc,2024-06-26 09:28:20.125550032,-66.0,-43.0,-3.0
1904-01-01 00:21:04.484845032,E4_Acc,2024-06-26 09:28:20.156800032,-66.0,-40.0,1.0
1904-01-01 00:21:04.516095032,E4_Acc,2024-06-26 09:28:20.188050032,-71.0,-39.0,-4.0
1904-01-01 00:21:04.547355045,E4_Acc,2024-06-26 09:28:20.219310045,-64.0,-44.0,-4.0
1904-01-01 00:21:04.578605045,E4_Acc,2024-06-26 09:28:20.250560045,-62.0,-43.0,15.0
1904-01-01 00:21:04.609855045,E4_Acc,2024-06-26 09:28:20.281810045,-57.0,-41.0,5.0
1904-01-01 00:21:04.641105045,E4_Acc,2024-06-26 09:28:20.313060045,-60.0,-43.0,-14.0
1904-01-01 00:21:04.672355045,E4_Acc,2024-06-26 09:28:20.344310045,-69.0,-42.0,-10.0
1904-01-01 00:21:04.703605045,E4_Acc,2024-06-26 09:28:20.375560045,-61.0,-36.0,-1.0
1904-01-01 00:21:04.734855045,E4_Acc,2024-06-26 09:28:20.406810045,-62.0,-31.0,-3.0
1904-01-01 00:21:04.766115059,E4_Acc,2024-06-26 09:28:20.438070059,-61.0,-29.0,-7.0
1904-01-01 00:21:04.797365059,E4_Acc,2024-06-26 09:28:20.469320059,-44.0,-29.0,-2.0
1904-01-01 00:21:04.828615058,E4_Acc,2024-06-26 09:28:20.500570058,-41.0,-29.0,2.0
1904-01-01 00:21:04.859865058,E4_Acc,2024-06-26 09:28:20.531820058,-40.0,-32.0,4.0
1904-01-01 00:21:04.891115059,E4_Acc,2024-06-26 09:28:20.563070059,-50.0,-30.0,1.0
1904-01-01 00:21:04.922365059,E4_Acc,2024-06-26 09:28:20.594320059,-55.0,-31.0,-2.0
1904-01-01 00:21:04.953615059,E4_Acc,2024-06-26 09:28:20.625570059,-55.0,-34.0,8.0
1904-01-01 00:21:04.984875072,E4_Acc,2024-06-26 09:28:20.656830072,-43.0,-35.0,13.0
1904-01-01 00:21:05.016125072,E4_Acc,2024-06-26 09:28:20.688080072,-46.0,-27.0,-1.0
1904-01-01 00:21:05.047375072,E4_Acc,2024-06-26 09:28:20.719330072,-64.0,-26.0,0.0
1904-01-01 00:21:05.078625072,E4_Acc,2024-06-26 09:28:20.750580072,-64.0,-28.0,-15.0
1904-01-01 00:21:05.109875072,E4_Acc,2024-06-26 09:28:20.781830072,-62.0,-23.0,-17.0
1904-01-01 00:21:05.141125072,E4_Acc,2024-06-26 09:28:20.813080072,-62.0,-24.0,-3.0
1904-01-01 00:21:05.172375072,E4_Acc,2024-06-26 09:28:20.844330072,-56.0,-23.0,0.0
1904-01-01 00:21:05.203635086,E4_Acc,2024-06-26 09:28:20.875590086,-58.0,-27.0,5.0
1904-01-01 00:21:05.234885086,E4_Acc,2024-06-26 09:28:20.906840086,-66.0,-29.0,2.0
1904-01-01 00:21:05.266135086,E4_Acc,2024-06-26 09:28:20.938090086,-66.0,-33.0,8.0
1904-01-01 00:21:05.297385086,E4_Acc,2024-06-26 09:28:20.969340086,-66.0,-32.0,9.0
1904-01-01 00:21:05.328635086,E4_Acc,2024-06-26 09:28:21.000590086,-59.0,-30.0,5.0
1904-01-01 00:21:05.359885085,E4_Acc,2024-06-26 09:28:21.031840085,-62.0,-21.0,-21.0
1904-01-01 00:21:05.391145100,E4_Acc,2024-06-26 09:28:21.063100100,-61.0,-16.0,-14.0
1904-01-01 00:21:05.422395100,E4_Acc,2024-06-26 09:28:21.094350100,-57.0,-18.0,-4.0
1904-01-01 00:21:05.453645099,E4_Acc,2024-06-26 09:28:21.125600099,-54.0,-19.0,-4.0
1904-01-01 00:21:05.484895100,E4_Acc,2024-06-26 09:28:21.156850100,-57.0,-22.0,-18.0
1904-01-01 00:21:05.516145100,E4_Acc,2024-06-26 09:28:21.188100100,-53.0,-29.0,1.0
1904-01-01 00:21:05.547395100,E4_Acc,2024-06-26 09:28:21.219350100,-54.0,-28.0,-1.0
1904-01-01 00:21:05.578645100,E4_Acc,2024-06-26 09:28:21.250600100,-57.0,-27.0,-16.0
1904-01-01 00:21:05.609905113,E4_Acc,2024-06-26 09:28:21.281860113,-58.0,-28.0,-15.0
1904-01-01 00:21:05.641155113,E4_Acc,2024-06-26 09:28:21.313110113,-53.0,-28.0,-14.0
1904-01-01 00:21:05.672405113,E4_Acc,2024-06-26 09:28:21.344360113,-58.0,-26.0,-20.0
1904-01-01 00:21:05.703655113,E4_Acc,2024-06-26 09:28:21.375610113,-56.0,-26.0,-14.0
1904-01-01 00:21:05.734905113,E4_Acc,2024-06-26 09:28:21.406860113,-59.0,-25.0,-19.0
1904-01-01 00:21:05.766155113,E4_Acc,2024-06-26 09:28:21.438110113,-58.0,-27.0,-18.0
1904-01-01 00:21:05.797405113,E4_Acc,2024-06-26 09:28:21.469360113,-56.0,-27.0,-18.0
1904-01-01 00:21:05.828664888,E4_Acc,2024-06-26 09:28:21.500619888,-54.0,-27.0,-16.0
1904-01-01 00:21:05.859914888,E4_Acc,2024-06-26 09:28:21.531869888,-51.0,-28.0,-14.0
1904-01-01 00:21:05.891164888,E4_Acc,2024-06-26 09:28:21.563119888,-54.0,-29.0,-17.0
1904-01-01 00:21:05.922414888,E4_Acc,2024-06-26 09:28:21.594369888,-53.0,-28.0,-15.0
1904-01-01 00:21:05.953664888,E4_Acc,2024-06-26 09:28:21.625619888,-54.0,-28.0,-23.0
1904-01-01 00:21:05.984914888,E4_Acc,2024-06-26 09:28:21.656869888,-53.0,-27.0,-29.0
1904-01-01 00:21:06.016164888,E4_Acc,2024-06-26 09:28:21.688119888,-52.0,-25.0,-32.0
1904-01-01 00:21:06.047424902,E4_Acc,2024-06-26 09:28:21.719379902,-46.0,-22.0,-33.0
1904-01-01 00:21:06.078674902,E4_Acc,2024-06-26 09:28:21.750629902,-51.0,-30.0,-22.0
1904-01-01 00:21:06.109924902,E4_Acc,2024-06-26 09:28:21.781879902,-51.0,-30.0,-28.0
1904-01-01 00:21:06.141174902,E4_Acc,2024-06-26 09:28:21.813129902,-54.0,-28.0,-39.0
1904-01-01 00:21:06.172424902,E4_Acc,2024-06-26 09:28:21.844379902,-57.0,-26.0,-39.0
1904-01-01 00:21:06.203674902,E4_Acc,2024-06-26 09:28:21.875629902,-52.0,-27.0,-35.0
1904-01-01 00:21:06.234924902,E4_Acc,2024-06-26 09:28:21.906879902,-43.0,-24.0,-29.0
1904-01-01 00:21:06.266184915,E4_Acc,2024-06-26 09:28:21.938139915,-47.0,-24.0,-29.0
1904-01-01 00:21:06.297434915,E4_Acc,2024-06-26 09:28:21.969389915,-53.0,-25.0,-39.0
1904-01-01 00:21:06.328684915,E4_Acc,2024-06-26 09:28:22.000639915,-51.0,-25.0,-35.0
1904-01-01 00:21:06.359934914,E4_Acc,2024-06-26 09:28:22.031889914,-49.0,-25.0,-29.0
1904-01-01 00:21:06.391184915,E4_Acc,2024-06-26 09:28:22.063139915,-54.0,-21.0,-33.0
1904-01-01 00:21:06.422434915,E4_Acc,2024-06-26 09:28:22.094389915,-43.0,-21.0,-22.0
1904-01-01 00:21:06.453684914,E4_Acc,2024-06-26 09:28:22.125639914,-44.0,-19.0,-21.0
1904-01-01 00:21:06.484944929,E4_Acc,2024-06-26 09:28:22.156899929,-49.0,-20.0,-25.0
1904-01-01 00:21:06.516194929,E4_Acc,2024-06-26 09:28:22.188149929,-54.0,-24.0,-22.0
1904-01-01 00:21:06.547444929,E4_Acc,2024-06-26 09:28:22.219399929,-64.0,-25.0,-31.0
1904-01-01 00:21:06.578694929,E4_Acc,2024-06-26 09:28:22.250649929,-62.0,-23.0,-34.0
1904-01-01 00:21:06.609944929,E4_Acc,2024-06-26 09:28:22.281899929,-52.0,-23.0,-24.0
1904-01-01 00:21:06.641194929,E4_Acc,2024-06-26 09:28:22.313149929,-52.0,-21.0,-22.0
1904-01-01 00:21:06.672444929,E4_Acc,2024-06-26 09:28:22.344399929,-46.0,-17.0,-25.0
1904-01-01 00:21:06.703704943,E4_Acc,2024-06-26 09:28:22.375659943,-47.0,-16.0,-21.0
1904-01-01 00:21:06.734954943,E4_Acc,2024-06-26 09:28:22.406909943,-45.0,-22.0,-18.0
1904-01-01 00:21:06.766204943,E4_Acc,2024-06-26 09:28:22.438159943,-67.0,-20.0,-34.0
1904-01-01 00:21:06.797454943,E4_Acc,2024-06-26 09:28:22.469409943,-68.0,-18.0,-42.0
1904-01-01 00:21:06.828704943,E4_Acc,2024-06-26 09:28:22.500659943,-54.0,-15.0,-23.0
1904-01-01 00:21:06.859954943,E4_Acc,2024-06-26 09:28:22.531909943,-64.0,-26.0,-9.0
1904-01-01 00:21:06.891204943,E4_Acc,2024-06-26 09:28:22.563159943,-66.0,-32.0,-15.0
1904-01-01 00:21:06.922464956,E4_Acc,2024-06-26 09:28:22.594419956,-60.0,-20.0,-28.0
1904-01-01 00:21:06.953714956,E4_Acc,2024-06-26 09:28:22.625669956,-58.0,-21.0,-26.0
1904-01-01 00:21:06.984964956,E4_Acc,2024-06-26 09:28:22.656919956,-53.0,-14.0,-24.0
1904-01-01 00:21:07.016214956,E4_Acc,2024-06-26 09:28:22.688169956,-55.0,-20.0,-19.0
1904-01-01 00:21:07.047464956,E4_Acc,2024-06-26 09:28:22.719419956,-55.0,-20.0,-19.0
1904-01-01 00:21:07.078714956,E4_Acc,2024-06-26 09:28:22.750669956,-61.0,-17.0,-27.0
1904-01-01 00:21:07.109964956,E4_Acc,2024-06-26 09:28:22.781919956,-57.0,-25.0,-23.0
1904-01-01 00:21:07.141224970,E4_Acc,2024-06-26 09:28:22.813179970,-60.0,-24.0,-21.0
1904-01-01 00:21:07.172474970,E4_Acc,2024-06-26 09:28:22.844429970,-58.0,-19.0,-12.0
1904-01-01 00:21:07.203724970,E4_Acc,2024-06-26 09:28:22.875679970,-56.0,-19.0,-12.0
1904-01-01 00:21:07.234974970,E4_Acc,2024-06-26 09:28:22.906929970,-62.0,-24.0,-27.0
1904-01-01 00:21:07.266224970,E4_Acc,2024-06-26 09:28:22.938179970,-47.0,-23.0,-16.0
1904-01-01 00:21:07.297474970,E4_Acc,2024-06-26 09:28:22.969429970,-46.0,-23.0,-9.0
1904-01-01 00:21:07.328724970,E4_Acc,2024-06-26 09:28:23.000679970,-56.0,-22.0,-9.0
1904-01-01 00:21:07.359984983,E4_Acc,2024-06-26 09:28:23.031939983,-51.0,-21.0,-2.0
1904-01-01 00:21:07.391234983,E4_Acc,2024-06-26 09:28:23.063189983,-39.0,-20.0,1.0
1904-01-01 00:21:07.422484983,E4_Acc,2024-06-26 09:28:23.094439983,-54.0,-20.0,-31.0
1904-01-01 00:21:07.453734983,E4_Acc,2024-06-26 09:28:23.125689983,-56.0,-21.0,-32.0
1904-01-01 00:21:07.484984983,E4_Acc,2024-06-26 09:28:23.156939983,-53.0,-21.0,-38.0
1904-01-01 00:21:07.516234983,E4_Acc,2024-06-26 09:28:23.188189983,-48.0,-21.0,-41.0
1904-01-01 00:21:07.547484983,E4_Acc,2024-06-26 09:28:23.219439983,-53.0,-21.0,-49.0
1904-01-01 00:21:07.578744997,E4_Acc,2024-06-26 09:28:23.250699997,-53.0,-23.0,-48.0
1904-01-01 00:21:07.609994997,E4_Acc,2024-06-26 09:28:23.281949997,-50.0,-22.0,-46.0
1904-01-01 00:21:07.641244997,E4_Acc,2024-06-26 09:28:23.313199997,-41.0,-22.0,-49.0
1904-01-01 00:21:07.672494997,E4_Acc,2024-06-26 09:28:23.344449997,-43.0,-21.0,-51.0
1904-01-01 00:21:07.703744997,E4_Acc,2024-06-26 09:28:23.375699997,-44.0,-24.0,-45.0
1904-01-01 00:21:07.734994997,E4_Acc,2024-06-26 09:28:23.406949997,-42.0,-24.0,-43.0
1904-01-01 00:21:07.766255011,E4_Acc,2024-06-26 09:28:23.438210011,-46.0,-22.0,-42.0
1904-01-01 00:21:07.797505011,E4_Acc,2024-06-26 09:28:23.469460011,-51.0,-24.0,-46.0
1904-01-01 00:21:07.828755011,E4_Acc,2024-06-26 09:28:23.500710011,-45.0,-23.0,-33.0
1904-01-01 00:21:07.860005011,E4_Acc,2024-06-26 09:28:23.531960011,-47.0,-22.0,-35.0
1904-01-01 00:21:07.891255011,E4_Acc,2024-06-26 09:28:23.563210011,-42.0,-20.0,-39.0
1904-01-01 00:21:07.922505011,E4_Acc,2024-06-26 09:28:23.594460011,-44.0,-19.0,-41.0
1904-01-01 00:21:07.953755011,E4_Acc,2024-06-26 09:28:23.625710011,-47.0,-20.0,-33.0
1904-01-01 00:21:07.985015024,E4_Acc,2024-06-26 09:28:23.656970024,-48.0,-19.0,-42.0
1904-01-01 00:21:08.016265024,E4_Acc,2024-06-26 09:28:23.688220024,-52.0,-18.0,-42.0
1904-01-01 00:21:08.047515024,E4_Acc,2024-06-26 09:28:23.719470024,-60.0,-23.0,-35.0
1904-01-01 00:21:08.078765024,E4_Acc,2024-06-26 09:28:23.750720024,-59.0,-22.0,-31.0
1904-01-01 00:21:08.110015024,E4_Acc,2024-06-26 09:28:23.781970024,-49.0,-18.0,-25.0
1904-01-01 00:21:08.141265024,E4_Acc,2024-06-26 09:28:23.813220024,-52.0,-17.0,-36.0
1904-01-01 00:21:08.172515024,E4_Acc,2024-06-26 09:28:23.844470024,-57.0,-14.0,-36.0
1904-01-01 00:21:08.203775038,E4_Acc,2024-06-26 09:28:23.875730038,-54.0,-15.0,-32.0
1904-01-01 00:21:08.235025038,E4_Acc,2024-06-26 09:28:23.906980038,-49.0,-14.0,-27.0
1904-01-01 00:21:08.266275038,E4_Acc,2024-06-26 09:28:23.938230038,-56.0,-14.0,-26.0
1904-01-01 00:21:08.297525038,E4_Acc,2024-06-26 09:28:23.969480038,-58.0,-17.0,-19.0
1904-01-01 00:21:08.328775038,E4_Acc,2024-06-26 09:28:24.000730038,-60.0,-13.0,-15.0
1904-01-01 00:21:08.360025038,E4_Acc,2024-06-26 09:28:24.031980038,-74.0,-15.0,-25.0
1904-01-01 00:21:08.391275038,E4_Acc,2024-06-26 09:28:24.063230038,-76.0,-14.0,-24.0
1904-01-01 00:21:08.422535051,E4_Acc,2024-06-26 09:28:24.094490051,-52.0,-12.0,-12.0
1904-01-01 00:21:08.453785050,E4_Acc,2024-06-26 09:28:24.125740050,-59.0,-11.0,-4.0
1904-01-01 00:21:08.485035051,E4_Acc,2024-06-26 09:28:24.156990051,-66.0,-12.0,-7.0
1904-01-01 00:21:08.516285051,E4_Acc,2024-06-26 09:28:24.188240051,-63.0,-9.0,-10.0
1904-01-01 00:21:08.547535051,E4_Acc,2024-06-26 09:28:24.219490051,-64.0,-8.0,-9.0
1904-01-01 00:21:08.578785051,E4_Acc,2024-06-26 09:28:24.250740051,-62.0,-8.0,4.0
1904-01-01 00:21:08.610035051,E4_Acc,2024-06-26 09:28:24.281990051,-55.0,-10.0,12.0
1904-01-01 00:21:08.641295065,E4_Acc,2024-06-26 09:28:24.313250065,-51.0,-9.0,19.0
1904-01-01 00:21:08.672545065,E4_Acc,2024-06-26 09:28:24.344500065,-59.0,-6.0,15.0
1904-01-01 00:21:08.703795065,E4_Acc,2024-06-26 09:28:24.375750065,-59.0,-6.0,15.0
1904-01-01 00:21:08.735045065,E4_Acc,2024-06-26 09:28:24.407000065,-66.0,-9.0,11.0
1904-01-01 00:21:08.766295065,E4_Acc,2024-06-26 09:28:24.438250065,-41.0,-7.0,28.0
1904-01-01 00:21:08.797545065,E4_Acc,2024-06-26 09:28:24.469500065,-39.0,-7.0,36.0
1904-01-01 00:21:08.828795064,E4_Acc,2024-06-26 09:28:24.500750064,-51.0,-3.0,33.0
1904-01-01 00:21:08.860055078,E4_Acc,2024-06-26 09:28:24.532010078,-54.0,-1.0,32.0
1904-01-01 00:21:08.891305078,E4_Acc,2024-06-26 09:28:24.563260078,-61.0,-1.0,33.0
1904-01-01 00:21:08.922555078,E4_Acc,2024-06-26 09:28:24.594510078,-59.0,-3.0,29.0
1904-01-01 00:21:08.953805078,E4_Acc,2024-06-26 09:28:24.625760078,-61.0,-1.0,30.0
1904-01-01 00:21:08.985055078,E4_Acc,2024-06-26 09:28:24.657010078,-58.0,1.0,34.0
1904-01-01 00:21:09.016305078,E4_Acc,2024-06-26 09:28:24.688260078,-49.0,0.0,35.0
1904-01-01 00:21:09.047555078,E4_Acc,2024-06-26 09:28:24.719510078,-46.0,0.0,37.0
1904-01-01 00:21:09.078815092,E4_Acc,2024-06-26 09:28:24.750770092,-44.0,-3.0,36.0
1904-01-01 00:21:09.110065092,E4_Acc,2024-06-26 09:28:24.782020092,-45.0,-4.0,41.0
1904-01-01 00:21:09.141315092,E4_Acc,2024-06-26 09:28:24.813270092,-44.0,-11.0,47.0
1904-01-01 00:21:09.172565092,E4_Acc,2024-06-26 09:28:24.844520092,-49.0,-9.0,49.0
1904-01-01 00:21:09.203815092,E4_Acc,2024-06-26 09:28:24.875770092,-39.0,-10.0,54.0
1904-01-01 00:21:09.235065092,E4_Acc,2024-06-26 09:28:24.907020092,-30.0,-8.0,52.0
1904-01-01 00:21:09.266315092,E4_Acc,2024-06-26 09:28:24.938270092,-25.0,-8.0,47.0
1904-01-01 00:21:09.297575106,E4_Acc,2024-06-26 09:28:24.969530106,-45.0,-10.0,41.0
1904-01-01 00:21:09.328825106,E4_Acc,2024-06-26 09:28:25.000780106,-69.0,-7.0,27.0
1904-01-01 00:21:09.360075106,E4_Acc,2024-06-26 09:28:25.032030106,-65.0,-7.0,24.0
1904-01-01 00:21:09.391325106,E4_Acc,2024-06-26 09:28:25.063280106,-61.0,-7.0,22.0
1904-01-01 00:21:09.422575106,E4_Acc,2024-06-26 09:28:25.094530106,-60.0,-6.0,22.0
1904-01-01 00:21:09.453825106,E4_Acc,2024-06-26 09:28:25.125780106,-63.0,-6.0,15.0
1904-01-01 00:21:09.485075106,E4_Acc,2024-06-26 09:28:25.157030106,-63.0,-4.0,7.0
1904-01-01 00:21:09.516335119,E4_Acc,2024-06-26 09:28:25.188290119,-61.0,-4.0,11.0
1904-01-01 00:21:09.547585119,E4_Acc,2024-06-26 09:28:25.219540119,-69.0,-3.0,5.0
1904-01-01 00:21:09.578835118,E4_Acc,2024-06-26 09:28:25.250790118,-72.0,-2.0,-3.0
1904-01-01 00:21:09.610085119,E4_Acc,2024-06-26 09:28:25.282040119,-63.0,-3.0,3.0
1904-01-01 00:21:09.641335119,E4_Acc,2024-06-26 09:28:25.313290119,-60.0,-7.0,10.0
1904-01-01 00:21:09.672585119,E4_Acc,2024-06-26 09:28:25.344540119,-58.0,-7.0,10.0
1904-01-01 00:21:09.703835119,E4_Acc,2024-06-26 09:28:25.375790119,-69.0,-9.0,8.0
1904-01-01 00:21:09.735094894,E4_Acc,2024-06-26 09:28:25.407049894,-67.0,-8.0,8.0
1904-01-01 00:21:09.766344894,E4_Acc,2024-06-26 09:28:25.438299894,-64.0,-6.0,8.0
1904-01-01 00:21:09.797594894,E4_Acc,2024-06-26 09:28:25.469549894,-75.0,-7.0,3.0
1904-01-01 00:21:09.828844894,E4_Acc,2024-06-26 09:28:25.500799894,-70.0,-5.0,8.0
1904-01-01 00:21:09.860094894,E4_Acc,2024-06-26 09:28:25.532049894,-51.0,-6.0,18.0
1904-01-01 00:21:09.891344894,E4_Acc,2024-06-26 09:28:25.563299894,-58.0,-4.0,16.0
1904-01-01 00:21:09.922594894,E4_Acc,2024-06-26 09:28:25.594549894,-59.0,-4.0,8.0
1904-01-01 00:21:09.953854908,E4_Acc,2024-06-26 09:28:25.625809908,-58.0,-5.0,-1.0
1904-01-01 00:21:09.985104908,E4_Acc,2024-06-26 09:28:25.657059908,-63.0,-5.0,-4.0
1904-01-01 00:21:10.016354908,E4_Acc,2024-06-26 09:28:25.688309908,-61.0,-6.0,8.0
1904-01-01 00:21:10.047604908,E4_Acc,2024-06-26 09:28:25.719559908,-66.0,-6.0,4.0
1904-01-01 00:21:10.078854908,E4_Acc,2024-06-26 09:28:25.750809908,-64.0,-8.0,3.0
1904-01-01 00:21:10.110104908,E4_Acc,2024-06-26 09:28:25.782059908,-62.0,-10.0,-2.0
1904-01-01 00:21:10.141354908,E4_Acc,2024-06-26 09:28:25.813309908,-61.0,-9.0,0.0
1904-01-01 00:21:10.172614921,E4_Acc,2024-06-26 09:28:25.844569921,-56.0,-10.0,3.0
1904-01-01 00:21:10.203864921,E4_Acc,2024-06-26 09:28:25.875819921,-59.0,-10.0,1.0
1904-01-01 00:21:10.235114921,E4_Acc,2024-06-26 09:28:25.907069921,-62.0,-10.0,-3.0
1904-01-01 00:21:10.266364921,E4_Acc,2024-06-26 09:28:25.938319921,-68.0,-9.0,-16.0
1904-01-01 00:21:10.297614921,E4_Acc,2024-06-26 09:28:25.969569921,-67.0,-10.0,-18.0
1904-01-01 00:21:10.328864921,E4_Acc,2024-06-26 09:28:26.000819921,-60.0,-11.0,-15.0
1904-01-01 00:21:10.360114921,E4_Acc,2024-06-26 09:28:26.032069921,-63.0,-11.0,-19.0
1904-01-01 00:21:10.391374935,E4_Acc,2024-06-26 09:28:26.063329935,-64.0,-12.0,-19.0
1904-01-01 00:21:10.422624935,E4_Acc,2024-06-26 09:28:26.094579935,-59.0,-12.0,-15.0
1904-01-01 00:21:10.453874935,E4_Acc,2024-06-26 09:28:26.125829935,-55.0,-13.0,-15.0
1904-01-01 00:21:10.485124935,E4_Acc,2024-06-26 09:28:26.157079935,-63.0,-10.0,-21.0
1904-01-01 00:21:10.516374935,E4_Acc,2024-06-26 09:28:26.188329935,-64.0,-11.0,-17.0
1904-01-01 00:21:10.547624935,E4_Acc,2024-06-26 09:28:26.219579935,-59.0,-11.0,-20.0
1904-01-01 00:21:10.578884949,E4_Acc,2024-06-26 09:28:26.250839949,-57.0,-11.0,-29.0
1904-01-01 00:21:10.610134949,E4_Acc,2024-06-26 09:28:26.282089949,-56.0,-13.0,-19.0
1904-01-01 00:21:10.641384949,E4_Acc,2024-06-26 09:28:26.313339949,-68.0,-17.0,-18.0
1904-01-01 00:21:10.672634949,E4_Acc,2024-06-26 09:28:26.344589949,-66.0,-19.0,-15.0
1904-01-01 00:21:10.703884949,E4_Acc,2024-06-26 09:28:26.375839949,-57.0,-18.0,-18.0
1904-01-01 00:21:10.735134949,E4_Acc,2024-06-26 09:28:26.407089949,-54.0,-13.0,-26.0
1904-01-01 00:21:10.766384949,E4_Acc,2024-06-26 09:28:26.438339949,-54.0,-14.0,-23.0
1904-01-01 00:21:10.797644962,E4_Acc,2024-06-26 09:28:26.469599962,-54.0,-14.0,-18.0
1904-01-01 00:21:10.828894962,E4_Acc,2024-06-26 09:28:26.500849962,-55.0,-16.0,-25.0
1904-01-01 00:21:10.860144962,E4_Acc,2024-06-26 09:28:26.532099962,-58.0,-16.0,-24.0
1904-01-01 00:21:10.891394962,E4_Acc,2024-06-26 09:28:26.563349962,-57.0,-19.0,-18.0
1904-01-01 00:21:10.922644962,E4_Acc,2024-06-26 09:28:26.594599962,-63.0,-17.0,-24.0
1904-01-01 00:21:10.953894962,E4_Acc,2024-06-26 09:28:26.625849962,-63.0,-17.0,-19.0
1904-01-01 00:21:10.985144962,E4_Acc,2024-06-26 09:28:26.657099962,-58.0,-13.0,-20.0
1904-01-01 00:21:11.016404976,E4_Acc,2024-06-26 09:28:26.688359976,-58.0,-11.0,-26.0
1904-01-01 00:21:11.047654976,E4_Acc,2024-06-26 09:28:26.719609976,-58.0,-12.0,-25.0
1904-01-01 00:21:11.078904976,E4_Acc,2024-06-26 09:28:26.750859976,-61.0,-12.0,-23.0
1904-01-01 00:21:11.110154976,E4_Acc,2024-06-26 09:28:26.782109976,-59.0,-14.0,-29.0
1904-01-01 00:21:11.141404976,E4_Acc,2024-06-26 09:28:26.813359976,-58.0,-18.0,-22.0
1904-01-01 00:21:11.172654976,E4_Acc,2024-06-26 09:28:26.844609976,-59.0,-19.0,-20.0
1904-01-01 00:21:11.203904976,E4_Acc,2024-06-26 09:28:26.875859976,-68.0,-17.0,-29.0
1904-01-01 00:21:11.235164989,E4_Acc,2024-06-26 09:28:26.907119989,-62.0,-15.0,-30.0
1904-01-01 00:21:11.266414989,E4_Acc,2024-06-26 09:28:26.938369989,-49.0,-14.0,-24.0
1904-01-01 00:21:11.297664989,E4_Acc,2024-06-26 09:28:26.969619989,-53.0,-14.0,-16.0
1904-01-01 00:21:11.328914989,E4_Acc,2024-06-26 09:28:27.000869989,-50.0,-13.0,-17.0
1904-01-01 00:21:11.360164989,E4_Acc,2024-06-26 09:28:27.032119989,-55.0,-12.0,-16.0
1904-01-01 00:21:11.391414989,E4_Acc,2024-06-26 09:28:27.063369989,-56.0,-15.0,-14.0
1904-01-01 00:21:11.422664989,E4_Acc,2024-06-26 09:28:27.094619989,-72.0,-13.0,-21.0
1904-01-01 00:21:11.453925002,E4_Acc,2024-06-26 09:28:27.125880002,-65.0,-11.0,-23.0
1904-01-01 00:21:11.485175003,E4_Acc,2024-06-26 09:28:27.157130003,-59.0,-13.0,-18.0
1904-01-01 00:21:11.516425003,E4_Acc,2024-06-26 09:28:27.188380003,-56.0,-13.0,-16.0
1904-01-01 00:21:11.547675003,E4_Acc,2024-06-26 09:28:27.219630003,-55.0,-10.0,-19.0
1904-01-01 00:21:11.578925003,E4_Acc,2024-06-26 09:28:27.250880003,-46.0,-11.0,-18.0
1904-01-01 00:21:11.610175003,E4_Acc,2024-06-26 09:28:27.282130003,-57.0,-12.0,-24.0
1904-01-01 00:21:11.641425003,E4_Acc,2024-06-26 09:28:27.313380003,-58.0,-12.0,-24.0
1904-01-01 00:21:11.672685017,E4_Acc,2024-06-26 09:28:27.344640017,-58.0,-14.0,-19.0
1904-01-01 00:21:11.703935017,E4_Acc,2024-06-26 09:28:27.375890017,-60.0,-13.0,-26.0
1904-01-01 00:21:11.735185017,E4_Acc,2024-06-26 09:28:27.407140017,-57.0,-14.0,-27.0
1904-01-01 00:21:11.766435017,E4_Acc,2024-06-26 09:28:27.438390017,-57.0,-15.0,-29.0
1904-01-01 00:21:11.797685017,E4_Acc,2024-06-26 09:28:27.469640017,-52.0,-11.0,-35.0
1904-01-01 00:21:11.828935017,E4_Acc,2024-06-26 09:28:27.500890017,-53.0,-13.0,-33.0
1904-01-01 00:21:11.860185017,E4_Acc,2024-06-26 09:28:27.532140017,-58.0,-18.0,-8.0
1904-01-01 00:21:11.891445030,E4_Acc,2024-06-26 09:28:27.563400030,-61.0,-18.0,-11.0
1904-01-01 00:21:11.922695030,E4_Acc,2024-06-26 09:28:27.594650030,-57.0,-15.0,-26.0
1904-01-01 00:21:11.953945030,E4_Acc,2024-06-26 09:28:27.625900030,-53.0,-12.0,-32.0
1904-01-01 00:21:11.985195030,E4_Acc,2024-06-26 09:28:27.657150030,-50.0,-7.0,-37.0
1904-01-01 00:21:12.016445030,E4_Acc,2024-06-26 09:28:27.688400030,-52.0,-17.0,-27.0
1904-01-01 00:21:12.047695030,E4_Acc,2024-06-26 09:28:27.719650030,-45.0,-17.0,-28.0
1904-01-01 00:21:12.078945030,E4_Acc,2024-06-26 09:28:27.750900030,-52.0,-17.0,-45.0
1904-01-01 00:21:12.110205044,E4_Acc,2024-06-26 09:28:27.782160044,-49.0,-18.0,-47.0
1904-01-01 00:21:12.141455044,E4_Acc,2024-06-26 09:28:27.813410044,-42.0,-17.0,-46.0
1904-01-01 00:21:12.172705044,E4_Acc,2024-06-26 09:28:27.844660044,-47.0,-15.0,-50.0
1904-01-01 00:21:12.203955044,E4_Acc,2024-06-26 09:28:27.875910044,-53.0,-16.0,-44.0
1904-01-01 00:21:12.235205044,E4_Acc,2024-06-26 09:28:27.907160044,-44.0,-13.0,-36.0
1904-01-01 00:21:12.266455044,E4_Acc,2024-06-26 09:28:27.938410044,-46.0,-14.0,-40.0
1904-01-01 00:21:12.297705044,E4_Acc,2024-06-26 09:28:27.969660044,-51.0,-13.0,-48.0
1904-01-01 00:21:12.328965057,E4_Acc,2024-06-26 09:28:28.000920057,-42.0,-14.0,-42.0
1904-01-01 00:21:12.360215057,E4_Acc,2024-06-26 09:28:28.032170057,-39.0,-15.0,-37.0
1904-01-01 00:21:12.391465057,E4_Acc,2024-06-26 09:28:28.063420057,-42.0,-14.0,-41.0
1904-01-01 00:21:12.422715057,E4_Acc,2024-06-26 09:28:28.094670057,-42.0,-13.0,-44.0
1904-01-01 00:21:12.453965057,E4_Acc,2024-06-26 09:28:28.125920057,-51.0,-17.0,-43.0
1904-01-01 00:21:12.485215057,E4_Acc,2024-06-26 09:28:28.157170057,-45.0,-17.0,-43.0
1904-01-01 00:21:12.516465057,E4_Acc,2024-06-26 09:28:28.188420057,-46.0,-18.0,-48.0
1904-01-01 00:21:12.547725071,E4_Acc,2024-06-26 09:28:28.219680071,-40.0,-16.0,-43.0
1904-01-01 00:21:12.578975070,E4_Acc,2024-06-26 09:28:28.250930070,-41.0,-14.0,-43.0
1904-01-01 00:21:12.610225071,E4_Acc,2024-06-26 09:28:28.282180071,-45.0,-15.0,-47.0
1904-01-01 00:21:12.641475071,E4_Acc,2024-06-26 09:28:28.313430071,-43.0,-14.0,-52.0
1904-01-01 00:21:12.672725071,E4_Acc,2024-06-26 09:28:28.344680071,-40.0,-14.0,-51.0
1904-01-01 00:21:12.703975071,E4_Acc,2024-06-26 09:28:28.375930071,-37.0,-14.0,-45.0
1904-01-01 00:21:12.735235084,E4_Acc,2024-06-26 09:28:28.407190084,-40.0,-13.0,-45.0
1904-01-01 00:21:12.766485084,E4_Acc,2024-06-26 09:28:28.438440084,-39.0,-12.0,-48.0
1904-01-01 00:21:12.797735084,E4_Acc,2024-06-26 09:28:28.469690084,-37.0,-10.0,-55.0
1904-01-01 00:21:12.828985084,E4_Acc,2024-06-26 09:28:28.500940084,-38.0,-12.0,-53.0
1904-01-01 00:21:12.860235084,E4_Acc,2024-06-26 09:28:28.532190084,-41.0,-15.0,-50.0
1904-01-01 00:21:12.891485084,E4_Acc,2024-06-26 09:28:28.563440084,-46.0,-20.0,-44.0
1904-01-01 00:21:12.922735084,E4_Acc,2024-06-26 09:28:28.594690084,-47.0,-23.0,-41.0
1904-01-01 00:21:12.953995098,E4_Acc,2024-06-26 09:28:28.625950098,-54.0,-24.0,-41.0
1904-01-01 00:21:12.985245098,E4_Acc,2024-06-26 09:28:28.657200098,-59.0,-23.0,-45.0
1904-01-01 00:21:13.016495098,E4_Acc,2024-06-26 09:28:28.688450098,-68.0,-17.0,-58.0
1904-01-01 00:21:13.047745098,E4_Acc,2024-06-26 09:28:28.719700098,-66.0,-7.0,-49.0
1904-01-01 00:21:13.078995098,E4_Acc,2024-06-26 09:28:28.750950098,-65.0,-9.0,-44.0
1904-01-01 00:21:13.110245098,E4_Acc,2024-06-26 09:28:28.782200098,-52.0,-3.0,-32.0
1904-01-01 00:21:13.141495098,E4_Acc,2024-06-26 09:28:28.813450098,-45.0,-1.0,-22.0
1904-01-01 00:21:13.172755112,E4_Acc,2024-06-26 09:28:28.844710112,-39.0,0.0,-5.0
1904-01-01 00:21:13.204005112,E4_Acc,2024-06-26 09:28:28.875960112,-51.0,1.0,-3.0
1904-01-01 00:21:13.235255112,E4_Acc,2024-06-26 09:28:28.907210112,-56.0,3.0,-3.0
1904-01-01 00:21:13.266505112,E4_Acc,2024-06-26 09:28:28.938460112,-59.0,7.0,-3.0
1904-01-01 00:21:13.297755112,E4_Acc,2024-06-26 09:28:28.969710112,-59.0,10.0,1.0
1904-01-01 00:21:13.329005112,E4_Acc,2024-06-26 09:28:29.000960112,-66.0,14.0,0.0
1904-01-01 00:21:13.360255112,E4_Acc,2024-06-26 09:28:29.032210112,-63.0,17.0,1.0
1904-01-01 00:21:13.391514887,E4_Acc,2024-06-26 09:28:29.063469887,-59.0,16.0,4.0
1904-01-01 00:21:13.422764887,E4_Acc,2024-06-26 09:28:29.094719887,-50.0,12.0,8.0
1904-01-01 00:21:13.454014887,E4_Acc,2024-06-26 09:28:29.125969887,-52.0,11.0,8.0
1904-01-01 00:21:13.485264887,E4_Acc,2024-06-26 09:28:29.157219887,-46.0,8.0,16.0
1904-01-01 00:21:13.516514887,E4_Acc,2024-06-26 09:28:29.188469887,-74.0,12.0,5.0
1904-01-01 00:21:13.547764887,E4_Acc,2024-06-26 09:28:29.219719887,-72.0,15.0,-6.0
1904-01-01 00:21:13.579014887,E4_Acc,2024-06-26 09:28:29.250969887,-50.0,11.0,-7.0
1904-01-01 00:21:13.610274900,E4_Acc,2024-06-26 09:28:29.282229900,-58.0,3.0,25.0
1904-01-01 00:21:13.641524900,E4_Acc,2024-06-26 09:28:29.313479900,-71.0,6.0,-11.0
1904-01-01 00:21:13.672774900,E4_Acc,2024-06-26 09:28:29.344729900,-64.0,14.0,-10.0
1904-01-01 00:21:13.704024900,E4_Acc,2024-06-26 09:28:29.375979900,-58.0,13.0,4.0
1904-01-01 00:21:13.735274900,E4_Acc,2024-06-26 09:28:29.407229900,-60.0,19.0,0.0
1904-01-01 00:21:13.766524900,E4_Acc,2024-06-26 09:28:29.438479900,-61.0,19.0,0.0
1904-01-01 00:21:13.797774900,E4_Acc,2024-06-26 09:28:29.469729900,-67.0,15.0,-6.0
1904-01-01 00:21:13.829034914,E4_Acc,2024-06-26 09:28:29.500989914,-70.0,12.0,-1.0
1904-01-01 00:21:13.860284914,E4_Acc,2024-06-26 09:28:29.532239914,-56.0,9.0,-5.0
1904-01-01 00:21:13.891534914,E4_Acc,2024-06-26 09:28:29.563489914,-73.0,15.0,-4.0
1904-01-01 00:21:13.922784914,E4_Acc,2024-06-26 09:28:29.594739914,-69.0,10.0,-1.0
1904-01-01 00:21:13.954034914,E4_Acc,2024-06-26 09:28:29.625989914,-61.0,11.0,-5.0
1904-01-01 00:21:13.985284914,E4_Acc,2024-06-26 09:28:29.657239914,-65.0,12.0,-3.0
1904-01-01 00:21:14.016534914,E4_Acc,2024-06-26 09:28:29.688489914,-69.0,12.0,-5.0
1904-01-01 00:21:14.047794928,E4_Acc,2024-06-26 09:28:29.719749928,-61.0,15.0,-13.0
1904-01-01 00:21:14.079044928,E4_Acc,2024-06-26 09:28:29.750999928,-59.0,18.0,-6.0
1904-01-01 00:21:14.110294928,E4_Acc,2024-06-26 09:28:29.782249928,-65.0,17.0,-6.0
1904-01-01 00:21:14.141544928,E4_Acc,2024-06-26 09:28:29.813499928,-58.0,21.0,-11.0
1904-01-01 00:21:14.172794928,E4_Acc,2024-06-26 09:28:29.844749928,-54.0,20.0,-6.0
1904-01-01 00:21:14.204044928,E4_Acc,2024-06-26 09:28:29.875999928,-53.0,20.0,-16.0
1904-01-01 00:21:14.235294928,E4_Acc,2024-06-26 09:28:29.907249928,-59.0,20.0,-15.0
1904-01-01 00:21:14.266554941,E4_Acc,2024-06-26 09:28:29.938509941,-53.0,16.0,-3.0
1904-01-01 00:21:14.297804941,E4_Acc,2024-06-26 09:28:29.969759941,-52.0,19.0,-10.0
1904-01-01 00:21:14.329054941,E4_Acc,2024-06-26 09:28:30.001009941,-62.0,18.0,-9.0
1904-01-01 00:21:14.360304941,E4_Acc,2024-06-26 09:28:30.032259941,-70.0,18.0,-12.0
1904-01-01 00:21:14.391554941,E4_Acc,2024-06-26 09:28:30.063509941,-62.0,18.0,-15.0
1904-01-01 00:21:14.422804941,E4_Acc,2024-06-26 09:28:30.094759941,-60.0,16.0,-12.0
1904-01-01 00:21:14.454054940,E4_Acc,2024-06-26 09:28:30.126009940,-63.0,15.0,-12.0
1904-01-01 00:21:14.485314955,E4_Acc,2024-06-26 09:28:30.157269955,-62.0,18.0,-17.0
1904-01-01 00:21:14.516564955,E4_Acc,2024-06-26 09:28:30.188519955,-62.0,16.0,-25.0
1904-01-01 00:21:14.547814955,E4_Acc,2024-06-26 09:28:30.219769955,-69.0,17.0,-25.0
1904-01-01 00:21:14.579064955,E4_Acc,2024-06-26 09:28:30.251019955,-60.0,19.0,-22.0
1904-01-01 00:21:14.610314955,E4_Acc,2024-06-26 09:28:30.282269955,-54.0,19.0,-15.0
1904-01-01 00:21:14.641564955,E4_Acc,2024-06-26 09:28:30.313519955,-61.0,17.0,-18.0
1904-01-01 00:21:14.672814955,E4_Acc,2024-06-26 09:28:30.344769955,-67.0,18.0,-23.0
1904-01-01 00:21:14.704074968,E4_Acc,2024-06-26 09:28:30.376029968,-70.0,18.0,-9.0
1904-01-01 00:21:14.735324968,E4_Acc,2024-06-26 09:28:30.407279968,-75.0,20.0,-8.0
1904-01-01 00:21:14.766574968,E4_Acc,2024-06-26 09:28:30.438529968,-73.0,25.0,-3.0
1904-01-01 00:21:14.797824968,E4_Acc,2024-06-26 09:28:30.469779968,-72.0,27.0,-1.0
1904-01-01 00:21:14.829074968,E4_Acc,2024-06-26 09:28:30.501029968,-58.0,32.0,3.0
1904-01-01 00:21:14.860324968,E4_Acc,2024-06-26 09:28:30.532279968,-44.0,34.0,9.0
1904-01-01 00:21:14.891574968,E4_Acc,2024-06-26 09:28:30.563529968,-38.0,37.0,13.0
1904-01-01 00:21:14.922834982,E4_Acc,2024-06-26 09:28:30.594789982,-31.0,37.0,9.0
1904-01-01 00:21:14.954084982,E4_Acc,2024-06-26 09:28:30.626039982,-30.0,40.0,16.0
1904-01-01 00:21:14.985334982,E4_Acc,2024-06-26 09:28:30.657289982,-30.0,43.0,20.0
1904-01-01 00:21:15.016584982,E4_Acc,2024-06-26 09:28:30.688539982,-34.0,42.0,13.0
1904-01-01 00:21:15.047834982,E4_Acc,2024-06-26 09:28:30.719789982,-38.0,40.0,17.0
1904-01-01 00:21:15.079084982,E4_Acc,2024-06-26 09:28:30.751039982,-42.0,39.0,25.0
1904-01-01 00:21:15.110334982,E4_Acc,2024-06-26 09:28:30.782289982,-49.0,38.0,4.0
1904-01-01 00:21:15.141594995,E4_Acc,2024-06-26 09:28:30.813549995,-56.0,39.0,-2.0
1904-01-01 00:21:15.172844995,E4_Acc,2024-06-26 09:28:30.844799995,-57.0,39.0,-5.0
1904-01-01 00:21:15.204094995,E4_Acc,2024-06-26 09:28:30.876049995,-56.0,41.0,-11.0
1904-01-01 00:21:15.235344995,E4_Acc,2024-06-26 09:28:30.907299995,-55.0,41.0,-14.0
1904-01-01 00:21:15.266594995,E4_Acc,2024-06-26 09:28:30.938549995,-47.0,39.0,-8.0
1904-01-01 00:21:15.297844995,E4_Acc,2024-06-26 09:28:30.969799995,-50.0,39.0,-9.0
1904-01-01 00:21:15.329105009,E4_Acc,2024-06-26 09:28:31.001060009,-56.0,38.0,-8.0
1904-01-01 00:21:15.360355009,E4_Acc,2024-06-26 09:28:31.032310009,-55.0,38.0,-7.0
1904-01-01 00:21:15.391605009,E4_Acc,2024-06-26 09:28:31.063560009,-54.0,41.0,-16.0
1904-01-01 00:21:15.422855009,E4_Acc,2024-06-26 09:28:31.094810009,-49.0,41.0,-16.0
1904-01-01 00:21:15.454105009,E4_Acc,2024-06-26 09:28:31.126060009,-48.0,43.0,-22.0
1904-01-01 00:21:15.485355009,E4_Acc,2024-06-26 09:28:31.157310009,-41.0,46.0,-33.0
1904-01-01 00:21:15.516605009,E4_Acc,2024-06-26 09:28:31.188560009,-39.0,50.0,-41.0
1904-01-01 00:21:15.547865023,E4_Acc,2024-06-26 09:28:31.219820023,-45.0,48.0,-48.0
1904-01-01 00:21:15.579115022,E4_Acc,2024-06-26 09:28:31.251070022,-40.0,46.0,-43.0
1904-01-01 00:21:15.610365023,E4_Acc,2024-06-26 09:28:31.282320023,-27.0,42.0,-35.0
1904-01-01 00:21:15.641615023,E4_Acc,2024-06-26 09:28:31.313570023,-12.0,40.0,-20.0
1904-01-01 00:21:15.672865023,E4_Acc,2024-06-26 09:28:31.344820023,-10.0,41.0,-14.0
1904-01-01 00:21:15.704115023,E4_Acc,2024-06-26 09:28:31.376070023,-9.0,42.0,-17.0
1904-01-01 00:21:15.735365023,E4_Acc,2024-06-26 09:28:31.407320023,-14.0,40.0,-1.0
1904-01-01 00:21:15.766625036,E4_Acc,2024-06-26 09:28:31.438580036,-31.0,48.0,-12.0
1904-01-01 00:21:15.797875036,E4_Acc,2024-06-26 09:28:31.469830036,-33.0,51.0,-28.0
1904-01-01 00:21:15.829125035,E4_Acc,2024-06-26 09:28:31.501080035,-43.0,53.0,-31.0
1904-01-01 00:21:15.860375035,E4_Acc,2024-06-26 09:28:31.532330035,-27.0,51.0,-18.0
1904-01-01 00:21:15.891625036,E4_Acc,2024-06-26 09:28:31.563580036,-36.0,50.0,-24.0
1904-01-01 00:21:15.922875036,E4_Acc,2024-06-26 09:28:31.594830036,-42.0,47.0,-19.0
1904-01-01 00:21:15.954125036,E4_Acc,2024-06-26 09:28:31.626080036,-42.0,45.0,-19.0
1904-01-01 00:21:15.985385050,E4_Acc,2024-06-26 09:28:31.657340050,-40.0,47.0,-23.0
1904-01-01 00:21:16.016635050,E4_Acc,2024-06-26 09:28:31.688590050,-37.0,46.0,-24.0
1904-01-01 00:21:16.047885050,E4_Acc,2024-06-26 09:28:31.719840050,-35.0,41.0,-25.0
1904-01-01 00:21:16.079135050,E4_Acc,2024-06-26 09:28:31.751090050,-48.0,44.0,-43.0
1904-01-01 00:21:16.110385050,E4_Acc,2024-06-26 09:28:31.782340050,-41.0,43.0,-36.0
1904-01-01 00:21:16.141635050,E4_Acc,2024-06-26 09:28:31.813590050,-36.0,42.0,-26.0
1904-01-01 00:21:16.172885050,E4_Acc,2024-06-26 09:28:31.844840050,-38.0,44.0,-29.0
1904-01-01 00:21:16.204145063,E4_Acc,2024-06-26 09:28:31.876100063,-43.0,47.0,-41.0
1904-01-01 00:21:16.235395063,E4_Acc,2024-06-26 09:28:31.907350063,-45.0,49.0,-40.0
1904-01-01 00:21:16.266645063,E4_Acc,2024-06-26 09:28:31.938600063,-33.0,45.0,-24.0
1904-01-01 00:21:16.297895063,E4_Acc,2024-06-26 09:28:31.969850063,-32.0,44.0,-24.0
1904-01-01 00:21:16.329145063,E4_Acc,2024-06-26 09:28:32.001100063,-34.0,43.0,-22.0
1904-01-01 00:21:16.360395063,E4_Acc,2024-06-26 09:28:32.032350063,-35.0,41.0,-17.0
1904-01-01 00:21:16.391645063,E4_Acc,2024-06-26 09:28:32.063600063,-42.0,43.0,-19.0
1904-01-01 00:21:16.422905077,E4_Acc,2024-06-26 09:28:32.094860077,-53.0,45.0,-23.0
1904-01-01 00:21:16.454155076,E4_Acc,2024-06-26 09:28:32.126110076,-46.0,50.0,-32.0
1904-01-01 00:21:16.485405077,E4_Acc,2024-06-26 09:28:32.157360077,-35.0,50.0,-21.0
1904-01-01 00:21:16.516655077,E4_Acc,2024-06-26 09:28:32.188610077,-33.0,53.0,-17.0
1904-01-01 00:21:16.547905077,E4_Acc,2024-06-26 09:28:32.219860077,-34.0,55.0,-20.0
1904-01-01 00:21:16.579155077,E4_Acc,2024-06-26 09:28:32.251110077,-30.0,52.0,-7.0
1904-01-01 00:21:16.610405077,E4_Acc,2024-06-26 09:28:32.282360077,-31.0,49.0,-8.0
1904-01-01 00:21:16.641665090,E4_Acc,2024-06-26 09:28:32.313620090,-34.0,49.0,-8.0
1904-01-01 00:21:16.672915090,E4_Acc,2024-06-26 09:28:32.344870090,-39.0,51.0,-7.0
1904-01-01 00:21:16.704165090,E4_Acc,2024-06-26 09:28:32.376120090,-32.0,47.0,1.0
1904-01-01 00:21:16.735415090,E4_Acc,2024-06-26 09:28:32.407370090,-34.0,52.0,-11.0
1904-01-01 00:21:16.766665090,E4_Acc,2024-06-26 09:28:32.438620090,-41.0,54.0,-7.0
1904-01-01 00:21:16.797915090,E4_Acc,2024-06-26 09:28:32.469870090,-35.0,54.0,-5.0
1904-01-01 00:21:16.829165090,E4_Acc,2024-06-26 09:28:32.501120090,-29.0,53.0,-5.0
1904-01-01 00:21:16.860425104,E4_Acc,2024-06-26 09:28:32.532380104,-32.0,54.0,-12.0
1904-01-01 00:21:16.891675104,E4_Acc,2024-06-26 09:28:32.563630104,-24.0,58.0,-10.0
1904-01-01 00:21:16.922925104,E4_Acc,2024-06-26 09:28:32.594880104,-27.0,59.0,-2.0
1904-01-01 00:21:16.954175104,E4_Acc,2024-06-26 09:28:32.626130104,-25.0,53.0,6.0
1904-01-01 00:21:16.985425104,E4_Acc,2024-06-26 09:28:32.657380104,-32.0,59.0,-5.0
1904-01-01 00:21:17.016675104,E4_Acc,2024-06-26 09:28:32.688630104,-33.0,58.0,-9.0
1904-01-01 00:21:17.047925104,E4_Acc,2024-06-26 09:28:32.719880104,-27.0,54.0,-10.0
1904-01-01 00:21:17.079185118,E4_Acc,2024-06-26 09:28:32.751140118,-24.0,54.0,-5.0
1904-01-01 00:21:17.110435118,E4_Acc,2024-06-26 09:28:32.782390118,-16.0,50.0,-4.0
1904-01-01 00:21:17.141685118,E4_Acc,2024-06-26 09:28:32.813640118,-14.0,47.0,-6.0
1904-01-01 00:21:17.172935118,E4_Acc,2024-06-26 09:28:32.844890118,-19.0,50.0,-9.0
1904-01-01 00:21:17.204185118,E4_Acc,2024-06-26 09:28:32.876140118,-34.0,52.0,-17.0
1904-01-01 00:21:17.235435118,E4_Acc,2024-06-26 09:28:32.907390118,-45.0,60.0,-18.0
1904-01-01 00:21:17.266685118,E4_Acc,2024-06-26 09:28:32.938640118,-44.0,61.0,-19.0
1904-01-01 00:21:17.297944893,E4_Acc,2024-06-26 09:28:32.969899893,-48.0,60.0,-21.0
1904-01-01 00:21:17.329194893,E4_Acc,2024-06-26 09:28:33.001149893,-47.0,54.0,-16.0
1904-01-01 00:21:17.360444893,E4_Acc,2024-06-26 09:28:33.032399893,-42.0,48.0,-12.0
1904-01-01 00:21:17.391694893,E4_Acc,2024-06-26 09:28:33.063649893,-33.0,48.0,-12.0
1904-01-01 00:21:17.422944893,E4_Acc,2024-06-26 09:28:33.094899893,-33.0,48.0,-14.0
1904-01-01 00:21:17.454194893,E4_Acc,2024-06-26 09:28:33.126149893,-35.0,49.0,-15.0
1904-01-01 00:21:17.485444893,E4_Acc,2024-06-26 09:28:33.157399893,-44.0,49.0,-11.0
1904-01-01 00:21:17.516704906,E4_Acc,2024-06-26 09:28:33.188659906,-44.0,51.0,-13.0
1904-01-01 00:21:17.547954906,E4_Acc,2024-06-26 09:28:33.219909906,-48.0,50.0,-17.0
1904-01-01 00:21:17.579204906,E4_Acc,2024-06-26 09:28:33.251159906,-42.0,49.0,-19.0
1904-01-01 00:21:17.610454906,E4_Acc,2024-06-26 09:28:33.282409906,-41.0,51.0,-28.0
1904-01-01 00:21:17.641704906,E4_Acc,2024-06-26 09:28:33.313659906,-25.0,48.0,-15.0
1904-01-01 00:21:17.672954906,E4_Acc,2024-06-26 09:28:33.344909906,-24.0,46.0,-13.0
1904-01-01 00:21:17.704214920,E4_Acc,2024-06-26 09:28:33.376169920,-35.0,45.0,-26.0
1904-01-01 00:21:17.735464920,E4_Acc,2024-06-26 09:28:33.407419920,-42.0,47.0,-24.0
1904-01-01 00:21:17.766714920,E4_Acc,2024-06-26 09:28:33.438669920,-40.0,46.0,-22.0
1904-01-01 00:21:17.797964920,E4_Acc,2024-06-26 09:28:33.469919920,-53.0,45.0,-27.0
1904-01-01 00:21:17.829214920,E4_Acc,2024-06-26 09:28:33.501169920,-48.0,45.0,-29.0
1904-01-01 00:21:17.860464920,E4_Acc,2024-06-26 09:28:33.532419920,-39.0,43.0,-27.0
1904-01-01 00:21:17.891714920,E4_Acc,2024-06-26 09:28:33.563669920,-41.0,41.0,-26.0
1904-01-01 00:21:17.922974934,E4_Acc,2024-06-26 09:28:33.594929934,-40.0,40.0,-21.0
1904-01-01 00:21:17.954224934,E4_Acc,2024-06-26 09:28:33.626179934,-42.0,43.0,-21.0
1904-01-01 00:21:17.985474934,E4_Acc,2024-06-26 09:28:33.657429934,-49.0,48.0,-21.0
1904-01-01 00:21:18.016724934,E4_Acc,2024-06-26 09:28:33.688679934,-45.0,40.0,-14.0
1904-01-01 00:21:18.047974934,E4_Acc,2024-06-26 09:28:33.719929934,-48.0,39.0,-16.0
1904-01-01 00:21:18.079224934,E4_Acc,2024-06-26 09:28:33.751179934,-48.0,40.0,-17.0
1904-01-01 00:21:18.110474934,E4_Acc,2024-06-26 09:28:33.782429934,-42.0,41.0,-15.0
1904-01-01 00:21:18.141734947,E4_Acc,2024-06-26 09:28:33.813689947,-43.0,40.0,-19.0
1904-01-01 00:21:18.172984947,E4_Acc,2024-06-26 09:28:33.844939947,-50.0,39.0,-17.0
1904-01-01 00:21:18.204234947,E4_Acc,2024-06-26 09:28:33.876189947,-53.0,42.0,-13.0
1904-01-01 00:21:18.235484947,E4_Acc,2024-06-26 09:28:33.907439947,-48.0,41.0,1.0
1904-01-01 00:21:18.266734947,E4_Acc,2024-06-26 09:28:33.938689947,-49.0,44.0,4.0
1904-01-01 00:21:18.297984947,E4_Acc,2024-06-26 09:28:33.969939947,-50.0,48.0,-7.0
1904-01-01 00:21:18.329234947,E4_Acc,2024-06-26 09:28:34.001189947,-40.0,49.0,-9.0
1904-01-01 00:21:18.360494961,E4_Acc,2024-06-26 09:28:34.032449961,-37.0,49.0,-8.0
1904-01-01 00:21:18.391744961,E4_Acc,2024-06-26 09:28:34.063699961,-39.0,52.0,-12.0
1904-01-01 00:21:18.422994961,E4_Acc,2024-06-26 09:28:34.094949961,-40.0,50.0,-8.0
1904-01-01 00:21:18.454244961,E4_Acc,2024-06-26 09:28:34.126199961,-42.0,51.0,-7.0
1904-01-01 00:21:18.485494961,E4_Acc,2024-06-26 09:28:34.157449961,-41.0,51.0,-7.0
1904-01-01 00:21:18.516744961,E4_Acc,2024-06-26 09:28:34.188699961,-38.0,51.0,-7.0
1904-01-01 00:21:18.547994961,E4_Acc,2024-06-26 09:28:34.219949961,-38.0,51.0,-7.0
1904-01-01 00:21:18.579254974,E4_Acc,2024-06-26 09:28:34.251209974,-35.0,52.0,-9.0
1904-01-01 00:21:18.610504974,E4_Acc,2024-06-26 09:28:34.282459974,-35.0,52.0,-10.0
1904-01-01 00:21:18.641754974,E4_Acc,2024-06-26 09:28:34.313709974,-36.0,52.0,-9.0
1904-01-01 00:21:18.673004974,E4_Acc,2024-06-26 09:28:34.344959974,-35.0,53.0,-9.0
1904-01-01 00:21:18.704254974,E4_Acc,2024-06-26 09:28:34.376209974,-37.0,53.0,-10.0
1904-01-01 00:21:18.735504974,E4_Acc,2024-06-26 09:28:34.407459974,-42.0,52.0,-9.0
1904-01-01 00:21:18.766754974,E4_Acc,2024-06-26 09:28:34.438709974,-43.0,52.0,-7.0
1904-01-01 00:21:18.798014988,E4_Acc,2024-06-26 09:28:34.469969988,-51.0,44.0,-2.0
1904-01-01 00:21:18.829264988,E4_Acc,2024-06-26 09:28:34.501219988,-48.0,41.0,-10.0
1904-01-01 00:21:18.860514988,E4_Acc,2024-06-26 09:28:34.532469988,-48.0,43.0,-13.0
1904-01-01 00:21:18.891764988,E4_Acc,2024-06-26 09:28:34.563719988,-41.0,45.0,-9.0
1904-01-01 00:21:18.923014988,E4_Acc,2024-06-26 09:28:34.594969988,-41.0,47.0,-11.0
1904-01-01 00:21:18.954264988,E4_Acc,2024-06-26 09:28:34.626219988,-40.0,51.0,-13.0
1904-01-01 00:21:18.985514988,E4_Acc,2024-06-26 09:28:34.657469988,-39.0,52.0,-9.0
1904-01-01 00:21:19.016775001,E4_Acc,2024-06-26 09:28:34.688730001,-38.0,52.0,-9.0
1904-01-01 00:21:19.048025001,E4_Acc,2024-06-26 09:28:34.719980001,-37.0,51.0,-10.0
1904-01-01 00:21:19.079275001,E4_Acc,2024-06-26 09:28:34.751230001,-37.0,51.0,-8.0
1904-01-01 00:21:19.110525001,E4_Acc,2024-06-26 09:28:34.782480001,-40.0,51.0,-8.0
1904-01-01 00:21:19.141775001,E4_Acc,2024-06-26 09:28:34.813730001,-39.0,51.0,-11.0
1904-01-01 00:21:19.173025001,E4_Acc,2024-06-26 09:28:34.844980001,-41.0,52.0,-10.0
1904-01-01 00:21:19.204275001,E4_Acc,2024-06-26 09:28:34.876230001,-49.0,53.0,-9.0
1904-01-01 00:21:19.235535015,E4_Acc,2024-06-26 09:28:34.907490015,-50.0,49.0,-5.0
1904-01-01 00:21:19.266785015,E4_Acc,2024-06-26 09:28:34.938740015,-48.0,41.0,-1.0
1904-01-01 00:21:19.298035015,E4_Acc,2024-06-26 09:28:34.969990015,-44.0,41.0,-1.0
1904-01-01 00:21:19.329285015,E4_Acc,2024-06-26 09:28:35.001240015,-43.0,44.0,-3.0
1904-01-01 00:21:19.360535014,E4_Acc,2024-06-26 09:28:35.032490014,-41.0,49.0,-5.0
1904-01-01 00:21:19.391785015,E4_Acc,2024-06-26 09:28:35.063740015,-40.0,50.0,-4.0
1904-01-01 00:21:19.423035015,E4_Acc,2024-06-26 09:28:35.094990015,-39.0,52.0,-5.0
1904-01-01 00:21:19.454295029,E4_Acc,2024-06-26 09:28:35.126250029,-37.0,54.0,-6.0
1904-01-01 00:21:19.485545029,E4_Acc,2024-06-26 09:28:35.157500029,-39.0,54.0,-7.0
1904-01-01 00:21:19.516795029,E4_Acc,2024-06-26 09:28:35.188750029,-38.0,50.0,-6.0
1904-01-01 00:21:19.548045029,E4_Acc,2024-06-26 09:28:35.220000029,-36.0,49.0,-5.0
1904-01-01 00:21:19.579295029,E4_Acc,2024-06-26 09:28:35.251250029,-39.0,50.0,-6.0
1904-01-01 00:21:19.610545029,E4_Acc,2024-06-26 09:28:35.282500029,-39.0,50.0,-5.0
1904-01-01 00:21:19.641795029,E4_Acc,2024-06-26 09:28:35.313750029,-39.0,50.0,-5.0
1904-01-01 00:21:19.673055042,E4_Acc,2024-06-26 09:28:35.345010042,-40.0,50.0,-6.0
1904-01-01 00:21:19.704305042,E4_Acc,2024-06-26 09:28:35.376260042,-41.0,50.0,-5.0
1904-01-01 00:21:19.735555042,E4_Acc,2024-06-26 09:28:35.407510042,-40.0,50.0,-5.0
1904-01-01 00:21:19.766805042,E4_Acc,2024-06-26 09:28:35.438760042,-41.0,49.0,-5.0
1904-01-01 00:21:19.798055042,E4_Acc,2024-06-26 09:28:35.470010042,-41.0,49.0,-5.0
1904-01-01 00:21:19.829305041,E4_Acc,2024-06-26 09:28:35.501260041,-40.0,49.0,-5.0
1904-01-01 00:21:19.860555041,E4_Acc,2024-06-26 09:28:35.532510041,-40.0,49.0,-6.0
1904-01-01 00:21:19.891815056,E4_Acc,2024-06-26 09:28:35.563770056,-40.0,50.0,-6.0
1904-01-01 00:21:19.923065056,E4_Acc,2024-06-26 09:28:35.595020056,-40.0,50.0,-5.0
1904-01-01 00:21:19.954315056,E4_Acc,2024-06-26 09:28:35.626270056,-40.0,50.0,-5.0
1904-01-01 00:21:19.985565056,E4_Acc,2024-06-26 09:28:35.657520056,-40.0,50.0,-5.0
1904-01-01 00:21:20.016815056,E4_Acc,2024-06-26 09:28:35.688770056,-40.0,51.0,-7.0
1904-01-01 00:21:20.048065056,E4_Acc,2024-06-26 09:28:35.720020056,-39.0,51.0,-6.0
1904-01-01 00:21:20.079325069,E4_Acc,2024-06-26 09:28:35.751280069,-39.0,51.0,-7.0
1904-01-01 00:21:20.110575069,E4_Acc,2024-06-26 09:28:35.782530069,-39.0,51.0,-7.0
1904-01-01 00:21:20.141825069,E4_Acc,2024-06-26 09:28:35.813780069,-39.0,50.0,-6.0
1904-01-01 00:21:20.173075069,E4_Acc,2024-06-26 09:28:35.845030069,-39.0,50.0,-8.0
1904-01-01 00:21:20.204325069,E4_Acc,2024-06-26 09:28:35.876280069,-41.0,50.0,-8.0
1904-01-01 00:21:20.235575069,E4_Acc,2024-06-26 09:28:35.907530069,-41.0,50.0,-7.0
1904-01-01 00:21:20.266825069,E4_Acc,2024-06-26 09:28:35.938780069,-41.0,51.0,-8.0
1904-01-01 00:21:20.298085083,E4_Acc,2024-06-26 09:28:35.970040083,-42.0,50.0,-7.0
1904-01-01 00:21:20.329335083,E4_Acc,2024-06-26 09:28:36.001290083,-41.0,50.0,-7.0
1904-01-01 00:21:20.360585082,E4_Acc,2024-06-26 09:28:36.032540082,-40.0,50.0,-7.0
1904-01-01 00:21:20.391835083,E4_Acc,2024-06-26 09:28:36.063790083,-39.0,51.0,-7.0
1904-01-01 00:21:20.423085083,E4_Acc,2024-06-26 09:28:36.095040083,-40.0,51.0,-7.0
1904-01-01 00:21:20.454335083,E4_Acc,2024-06-26 09:28:36.126290083,-39.0,52.0,-8.0
1904-01-01 00:21:20.485585083,E4_Acc,2024-06-26 09:28:36.157540083,-39.0,52.0,-7.0
1904-01-01 00:21:20.516845097,E4_Acc,2024-06-26 09:28:36.188800097,-38.0,52.0,-7.0
1904-01-01 00:21:20.548095097,E4_Acc,2024-06-26 09:28:36.220050097,-38.0,51.0,-6.0
1904-01-01 00:21:20.579345097,E4_Acc,2024-06-26 09:28:36.251300097,-38.0,51.0,-7.0
1904-01-01 00:21:20.610595097,E4_Acc,2024-06-26 09:28:36.282550097,-38.0,51.0,-6.0
1904-01-01 00:21:20.641845097,E4_Acc,2024-06-26 09:28:36.313800097,-39.0,52.0,-6.0
1904-01-01 00:21:20.673095097,E4_Acc,2024-06-26 09:28:36.345050097,-39.0,51.0,-5.0
1904-01-01 00:21:20.704345097,E4_Acc,2024-06-26 09:28:36.376300097,-39.0,51.0,-4.0
1904-01-01 00:21:20.735605110,E4_Acc,2024-06-26 09:28:36.407560110,-38.0,51.0,-4.0
1904-01-01 00:21:20.766855110,E4_Acc,2024-06-26 09:28:36.438810110,-39.0,52.0,-4.0
1904-01-01 00:21:20.798105110,E4_Acc,2024-06-26 09:28:36.470060110,-39.0,51.0,-4.0
1904-01-01 00:21:20.829355110,E4_Acc,2024-06-26 09:28:36.501310110,-39.0,51.0,-5.0
1904-01-01 00:21:20.860605110,E4_Acc,2024-06-26 09:28:36.532560110,-38.0,50.0,-4.0
1904-01-01 00:21:20.891855110,E4_Acc,2024-06-26 09:28:36.563810110,-38.0,50.0,-4.0
1904-01-01 00:21:20.923105110,E4_Acc,2024-06-26 09:28:36.595060110,-38.0,51.0,-4.0
1904-01-01 00:21:20.954364885,E4_Acc,2024-06-26 09:28:36.626319885,-38.0,51.0,-4.0
1904-01-01 00:21:20.985614885,E4_Acc,2024-06-26 09:28:36.657569885,-38.0,51.0,-4.0
1904-01-01 00:21:21.016864885,E4_Acc,2024-06-26 09:28:36.688819885,-38.0,51.0,-3.0
1904-01-01 00:21:21.048114885,E4_Acc,2024-06-26 09:28:36.720069885,-37.0,51.0,-3.0
1904-01-01 00:21:21.079364885,E4_Acc,2024-06-26 09:28:36.751319885,-38.0,51.0,-3.0
1904-01-01 00:21:21.110614885,E4_Acc,2024-06-26 09:28:36.782569885,-38.0,51.0,-4.0
1904-01-01 00:21:21.141864885,E4_Acc,2024-06-26 09:28:36.813819885,-39.0,51.0,-4.0
1904-01-01 00:21:21.173124899,E4_Acc,2024-06-26 09:28:36.845079899,-39.0,51.0,-4.0
1904-01-01 00:21:21.204374899,E4_Acc,2024-06-26 09:28:36.876329899,-39.0,50.0,-4.0
1904-01-01 00:21:21.235624899,E4_Acc,2024-06-26 09:28:36.907579899,-39.0,50.0,-4.0
1904-01-01 00:21:21.266874899,E4_Acc,2024-06-26 09:28:36.938829899,-40.0,50.0,-5.0
1904-01-01 00:21:21.298124899,E4_Acc,2024-06-26 09:28:36.970079899,-39.0,50.0,-4.0
1904-01-01 00:21:21.329374899,E4_Acc,2024-06-26 09:28:37.001329899,-40.0,50.0,-5.0
1904-01-01 00:21:21.360624899,E4_Acc,2024-06-26 09:28:37.032579899,-39.0,51.0,-6.0
1904-01-01 00:21:21.391884912,E4_Acc,2024-06-26 09:28:37.063839912,-39.0,51.0,-6.0
1904-01-01 00:21:21.423134912,E4_Acc,2024-06-26 09:28:37.095089912,-39.0,51.0,-7.0
1904-01-01 00:21:21.454384912,E4_Acc,2024-06-26 09:28:37.126339912,-39.0,51.0,-6.0
1904-01-01 00:21:21.485634912,E4_Acc,2024-06-26 09:28:37.157589912,-39.0,51.0,-6.0
1904-01-01 00:21:21.516884912,E4_Acc,2024-06-26 09:28:37.188839912,-40.0,51.0,-6.0
1904-01-01 00:21:21.548134912,E4_Acc,2024-06-26 09:28:37.220089912,-40.0,51.0,-7.0
1904-01-01 00:21:21.579384912,E4_Acc,2024-06-26 09:28:37.251339912,-40.0,51.0,-7.0
1904-01-01 00:21:21.610644926,E4_Acc,2024-06-26 09:28:37.282599926,-40.0,51.0,-7.0
1904-01-01 00:21:21.641894926,E4_Acc,2024-06-26 09:28:37.313849926,-40.0,51.0,-8.0
1904-01-01 00:21:21.673144926,E4_Acc,2024-06-26 09:28:37.345099926,-39.0,50.0,-7.0
1904-01-01 00:21:21.704394926,E4_Acc,2024-06-26 09:28:37.376349926,-39.0,50.0,-8.0
1904-01-01 00:21:21.735644926,E4_Acc,2024-06-26 09:28:37.407599926,-39.0,50.0,-7.0
1904-01-01 00:21:21.766894926,E4_Acc,2024-06-26 09:28:37.438849926,-39.0,50.0,-8.0
1904-01-01 00:21:21.798144926,E4_Acc,2024-06-26 09:28:37.470099926,-39.0,50.0,-7.0
1904-01-01 00:21:21.829404939,E4_Acc,2024-06-26 09:28:37.501359939,-41.0,50.0,-7.0
1904-01-01 00:21:21.860654939,E4_Acc,2024-06-26 09:28:37.532609939,-41.0,51.0,-6.0
1904-01-01 00:21:21.891904940,E4_Acc,2024-06-26 09:28:37.563859940,-43.0,49.0,-5.0
1904-01-01 00:21:21.923154940,E4_Acc,2024-06-26 09:28:37.595109940,-43.0,47.0,-7.0
1904-01-01 00:21:21.954404940,E4_Acc,2024-06-26 09:28:37.626359940,-44.0,46.0,-6.0
1904-01-01 00:21:21.985654940,E4_Acc,2024-06-26 09:28:37.657609940,-45.0,48.0,-5.0
1904-01-01 00:21:22.016904940,E4_Acc,2024-06-26 09:28:37.688859940,-46.0,49.0,-5.0
1904-01-01 00:21:22.048164953,E4_Acc,2024-06-26 09:28:37.720119953,-46.0,48.0,-4.0
1904-01-01 00:21:22.079414953,E4_Acc,2024-06-26 09:28:37.751369953,-44.0,48.0,-2.0
1904-01-01 00:21:22.110664953,E4_Acc,2024-06-26 09:28:37.782619953,-42.0,48.0,-3.0
1904-01-01 00:21:22.141914953,E4_Acc,2024-06-26 09:28:37.813869953,-41.0,48.0,-4.0
1904-01-01 00:21:22.173164953,E4_Acc,2024-06-26 09:28:37.845119953,-41.0,47.0,-4.0
1904-01-01 00:21:22.204414953,E4_Acc,2024-06-26 09:28:37.876369953,-42.0,45.0,-4.0
1904-01-01 00:21:22.235664953,E4_Acc,2024-06-26 09:28:37.907619953,-44.0,45.0,-2.0
1904-01-01 00:21:22.266924967,E4_Acc,2024-06-26 09:28:37.938879967,-45.0,44.0,-1.0
1904-01-01 00:21:22.298174967,E4_Acc,2024-06-26 09:28:37.970129967,-45.0,44.0,-1.0
1904-01-01 00:21:22.329424967,E4_Acc,2024-06-26 09:28:38.001379967,-46.0,44.0,-1.0
1904-01-01 00:21:22.360674967,E4_Acc,2024-06-26 09:28:38.032629967,-46.0,46.0,0.0
1904-01-01 00:21:22.391924966,E4_Acc,2024-06-26 09:28:38.063879966,-47.0,47.0,0.0
1904-01-01 00:21:22.423174967,E4_Acc,2024-06-26 09:28:38.095129967,-46.0,48.0,-1.0
1904-01-01 00:21:22.454424967,E4_Acc,2024-06-26 09:28:38.126379967,-45.0,49.0,-1.0
1904-01-01 00:21:22.485684980,E4_Acc,2024-06-26 09:28:38.157639980,-45.0,49.0,-1.0
1904-01-01 00:21:22.516934980,E4_Acc,2024-06-26 09:28:38.188889980,-44.0,48.0,-2.0
1904-01-01 00:21:22.548184980,E4_Acc,2024-06-26 09:28:38.220139980,-44.0,47.0,-2.0
1904-01-01 00:21:22.579434980,E4_Acc,2024-06-26 09:28:38.251389980,-44.0,47.0,-3.0
1904-01-01 00:21:22.610684980,E4_Acc,2024-06-26 09:28:38.282639980,-43.0,47.0,-2.0
1904-01-01 00:21:22.641934980,E4_Acc,2024-06-26 09:28:38.313889980,-44.0,47.0,-2.0
1904-01-01 00:21:22.673184980,E4_Acc,2024-06-26 09:28:38.345139980,-42.0,47.0,-2.0
1904-01-01 00:21:22.704444994,E4_Acc,2024-06-26 09:28:38.376399994,-41.0,47.0,-3.0
1904-01-01 00:21:22.735694994,E4_Acc,2024-06-26 09:28:38.407649994,-41.0,48.0,-2.0
1904-01-01 00:21:22.766944994,E4_Acc,2024-06-26 09:28:38.438899994,-42.0,49.0,-3.0
1904-01-01 00:21:22.798194994,E4_Acc,2024-06-26 09:28:38.470149994,-41.0,49.0,-2.0
1904-01-01 00:21:22.829444994,E4_Acc,2024-06-26 09:28:38.501399994,-42.0,49.0,-2.0
1904-01-01 00:21:22.860694994,E4_Acc,2024-06-26 09:28:38.532649994,-42.0,49.0,-2.0
1904-01-01 00:21:22.891955007,E4_Acc,2024-06-26 09:28:38.563910007,-42.0,49.0,-2.0
1904-01-01 00:21:22.923205007,E4_Acc,2024-06-26 09:28:38.595160007,-42.0,49.0,-2.0
1904-01-01 00:21:22.954455007,E4_Acc,2024-06-26 09:28:38.626410007,-41.0,50.0,-2.0
1904-01-01 00:21:22.985705007,E4_Acc,2024-06-26 09:28:38.657660007,-41.0,50.0,-2.0
1904-01-01 00:21:23.016955007,E4_Acc,2024-06-26 09:28:38.688910007,-40.0,50.0,-3.0
1904-01-01 00:21:23.048205007,E4_Acc,2024-06-26 09:28:38.720160007,-39.0,50.0,-3.0
1904-01-01 00:21:23.079455007,E4_Acc,2024-06-26 09:28:38.751410007,-39.0,50.0,-3.0
1904-01-01 00:21:23.110715021,E4_Acc,2024-06-26 09:28:38.782670021,-39.0,50.0,-3.0
1904-01-01 00:21:23.141965021,E4_Acc,2024-06-26 09:28:38.813920021,-40.0,50.0,-3.0
1904-01-01 00:21:23.173215021,E4_Acc,2024-06-26 09:28:38.845170021,-40.0,50.0,-3.0
1904-01-01 00:21:23.204465021,E4_Acc,2024-06-26 09:28:38.876420021,-40.0,50.0,-3.0
1904-01-01 00:21:23.235715021,E4_Acc,2024-06-26 09:28:38.907670021,-41.0,50.0,-3.0
1904-01-01 00:21:23.266965021,E4_Acc,2024-06-26 09:28:38.938920021,-41.0,50.0,-3.0
1904-01-01 00:21:23.298215021,E4_Acc,2024-06-26 09:28:38.970170021,-41.0,50.0,-3.0
1904-01-01 00:21:23.329475035,E4_Acc,2024-06-26 09:28:39.001430035,-41.0,51.0,-3.0
1904-01-01 00:21:23.360725035,E4_Acc,2024-06-26 09:28:39.032680035,-41.0,51.0,-3.0
1904-01-01 00:21:23.391975034,E4_Acc,2024-06-26 09:28:39.063930034,-40.0,51.0,-3.0
1904-01-01 00:21:23.423225035,E4_Acc,2024-06-26 09:28:39.095180035,-39.0,51.0,-3.0
1904-01-01 00:21:23.454475035,E4_Acc,2024-06-26 09:28:39.126430035,-39.0,51.0,-3.0
1904-01-01 00:21:23.485725035,E4_Acc,2024-06-26 09:28:39.157680035,-39.0,51.0,-3.0
1904-01-01 00:21:23.516975035,E4_Acc,2024-06-26 09:28:39.188930035,-39.0,51.0,-3.0
1904-01-01 00:21:23.548235048,E4_Acc,2024-06-26 09:28:39.220190048,-39.0,50.0,-3.0
1904-01-01 00:21:23.579485048,E4_Acc,2024-06-26 09:28:39.251440048,-39.0,50.0,-3.0
1904-01-01 00:21:23.610735048,E4_Acc,2024-06-26 09:28:39.282690048,-39.0,50.0,-3.0
1904-01-01 00:21:23.641985048,E4_Acc,2024-06-26 09:28:39.313940048,-39.0,50.0,-3.0
1904-01-01 00:21:23.673235048,E4_Acc,2024-06-26 09:28:39.345190048,-39.0,50.0,-3.0
1904-01-01 00:21:23.704485048,E4_Acc,2024-06-26 09:28:39.376440048,-40.0,51.0,-4.0
1904-01-01 00:21:23.735735048,E4_Acc,2024-06-26 09:28:39.407690048,-39.0,52.0,-4.0
1904-01-01 00:21:23.766995062,E4_Acc,2024-06-26 09:28:39.438950062,-39.0,52.0,-4.0
1904-01-01 00:21:23.798245062,E4_Acc,2024-06-26 09:28:39.470200062,-38.0,52.0,-4.0
1904-01-01 00:21:23.829495062,E4_Acc,2024-06-26 09:28:39.501450062,-38.0,52.0,-4.0
1904-01-01 00:21:23.860745062,E4_Acc,2024-06-26 09:28:39.532700062,-38.0,52.0,-4.0
1904-01-01 00:21:23.891995062,E4_Acc,2024-06-26 09:28:39.563950062,-38.0,52.0,-4.0
1904-01-01 00:21:23.923245062,E4_Acc,2024-06-26 09:28:39.595200062,-39.0,52.0,-5.0
1904-01-01 00:21:23.954495062,E4_Acc,2024-06-26 09:28:39.626450062,-39.0,52.0,-4.0
1904-01-01 00:21:23.985755075,E4_Acc,2024-06-26 09:28:39.657710075,-39.0,53.0,-4.0
1904-01-01 00:21:24.017005075,E4_Acc,2024-06-26 09:28:39.688960075,-38.0,52.0,-3.0
1904-01-01 00:21:24.048255075,E4_Acc,2024-06-26 09:28:39.720210075,-37.0,52.0,-5.0
1904-01-01 00:21:24.079505075,E4_Acc,2024-06-26 09:28:39.751460075,-37.0,53.0,-5.0
1904-01-01 00:21:24.110755075,E4_Acc,2024-06-26 09:28:39.782710075,-37.0,52.0,-5.0
1904-01-01 00:21:24.142005075,E4_Acc,2024-06-26 09:28:39.813960075,-38.0,52.0,-5.0
1904-01-01 00:21:24.173255075,E4_Acc,2024-06-26 09:28:39.845210075,-39.0,51.0,-5.0
1904-01-01 00:21:24.204515089,E4_Acc,2024-06-26 09:28:39.876470089,-40.0,50.0,-5.0
1904-01-01 00:21:24.235765089,E4_Acc,2024-06-26 09:28:39.907720089,-40.0,50.0,-5.0
1904-01-01 00:21:24.267015089,E4_Acc,2024-06-26 09:28:39.938970089,-41.0,49.0,-5.0
1904-01-01 00:21:24.298265089,E4_Acc,2024-06-26 09:28:39.970220089,-41.0,49.0,-4.0
1904-01-01 00:21:24.329515089,E4_Acc,2024-06-26 09:28:40.001470089,-41.0,49.0,-5.0
1904-01-01 00:21:24.360765089,E4_Acc,2024-06-26 09:28:40.032720089,-41.0,49.0,-4.0
1904-01-01 00:21:24.392015088,E4_Acc,2024-06-26 09:28:40.063970088,-41.0,49.0,-4.0
1904-01-01 00:21:24.423275103,E4_Acc,2024-06-26 09:28:40.095230103,-41.0,49.0,-4.0
1904-01-01 00:21:24.454525103,E4_Acc,2024-06-26 09:28:40.126480103,-40.0,49.0,-4.0
1904-01-01 00:21:24.485775103,E4_Acc,2024-06-26 09:28:40.157730103,-40.0,50.0,-4.0
1904-01-01 00:21:24.517025103,E4_Acc,2024-06-26 09:28:40.188980103,-40.0,49.0,-4.0
1904-01-01 00:21:24.548275103,E4_Acc,2024-06-26 09:28:40.220230103,-40.0,50.0,-4.0
1904-01-01 00:21:24.579525103,E4_Acc,2024-06-26 09:28:40.251480103,-40.0,50.0,-5.0
1904-01-01 00:21:24.610775103,E4_Acc,2024-06-26 09:28:40.282730103,-41.0,49.0,-5.0
1904-01-01 00:21:24.642035116,E4_Acc,2024-06-26 09:28:40.313990116,-40.0,49.0,-5.0
1904-01-01 00:21:24.673285116,E4_Acc,2024-06-26 09:28:40.345240116,-41.0,50.0,-5.0
1904-01-01 00:21:24.704535116,E4_Acc,2024-06-26 09:28:40.376490116,-41.0,50.0,-5.0
1904-01-01 00:21:24.735785116,E4_Acc,2024-06-26 09:28:40.407740116,-40.0,51.0,-5.0
1904-01-01 00:21:24.767035116,E4_Acc,2024-06-26 09:28:40.438990116,-40.0,51.0,-5.0
1904-01-01 00:21:24.798285116,E4_Acc,2024-06-26 09:28:40.470240116,-40.0,51.0,-5.0
1904-01-01 00:21:24.829535116,E4_Acc,2024-06-26 09:28:40.501490116,-40.0,51.0,-5.0
1904-01-01 00:21:24.860794891,E4_Acc,2024-06-26 09:28:40.532749891,-40.0,51.0,-5.0
1904-01-01 00:21:24.892044891,E4_Acc,2024-06-26 09:28:40.563999891,-40.0,50.0,-6.0
1904-01-01 00:21:24.923294891,E4_Acc,2024-06-26 09:28:40.595249891,-40.0,50.0,-6.0
1904-01-01 00:21:24.954544891,E4_Acc,2024-06-26 09:28:40.626499891,-40.0,51.0,-6.0
1904-01-01 00:21:24.985794891,E4_Acc,2024-06-26 09:28:40.657749891,-41.0,50.0,-5.0
1904-01-01 00:21:25.017044891,E4_Acc,2024-06-26 09:28:40.688999891,-41.0,51.0,-6.0
1904-01-01 00:21:25.048304905,E4_Acc,2024-06-26 09:28:40.720259905,-40.0,51.0,-5.0
1904-01-01 00:21:25.079554905,E4_Acc,2024-06-26 09:28:40.751509905,-40.0,51.0,-5.0
1904-01-01 00:21:25.110804905,E4_Acc,2024-06-26 09:28:40.782759905,-40.0,51.0,-5.0
1904-01-01 00:21:25.142054905,E4_Acc,2024-06-26 09:28:40.814009905,-40.0,51.0,-5.0
1904-01-01 00:21:25.173304905,E4_Acc,2024-06-26 09:28:40.845259905,-39.0,51.0,-5.0
1904-01-01 00:21:25.204554905,E4_Acc,2024-06-26 09:28:40.876509905,-39.0,51.0,-5.0
1904-01-01 00:21:25.235804905,E4_Acc,2024-06-26 09:28:40.907759905,-39.0,51.0,-5.0
1904-01-01 00:21:25.267064918,E4_Acc,2024-06-26 09:28:40.939019918,-39.0,50.0,-5.0
1904-01-01 00:21:25.298314918,E4_Acc,2024-06-26 09:28:40.970269918,-39.0,50.0,-5.0
1904-01-01 00:21:25.329564918,E4_Acc,2024-06-26 09:28:41.001519918,-39.0,51.0,-5.0
1904-01-01 00:21:25.360814918,E4_Acc,2024-06-26 09:28:41.032769918,-39.0,51.0,-5.0
1904-01-01 00:21:25.392064917,E4_Acc,2024-06-26 09:28:41.064019917,-39.0,51.0,-5.0
