Seconds,Stream,E4_Seconds,AccX,AccY,AccZ
1904-01-01 00:13:42.299610904,E4_Acc,2024-06-24 12:40:04.334549904,-32.0,0.0,55.0
1904-01-01 00:13:42.330870917,E4_Acc,2024-06-24 12:40:04.365809917,-32.0,1.0,55.0
1904-01-01 00:13:42.362120917,E4_Acc,2024-06-24 12:40:04.397059917,-32.0,1.0,55.0
1904-01-01 00:13:42.393370917,E4_Acc,2024-06-24 12:40:04.428309917,-32.0,1.0,55.0
1904-01-01 00:13:42.424620917,E4_Acc,2024-06-24 12:40:04.459559917,-33.0,1.0,56.0
1904-01-01 00:13:42.455870917,E4_Acc,2024-06-24 12:40:04.490809917,-32.0,0.0,56.0
1904-01-01 00:13:42.487120917,E4_Acc,2024-06-24 12:40:04.522059917,-32.0,0.0,56.0
1904-01-01 00:13:42.518370917,E4_Acc,2024-06-24 12:40:04.553309917,-32.0,0.0,56.0
1904-01-01 00:13:42.549630931,E4_Acc,2024-06-24 12:40:04.584569931,-32.0,-1.0,56.0
1904-01-01 00:13:42.580880931,E4_Acc,2024-06-24 12:40:04.615819931,-32.0,-1.0,55.0
1904-01-01 00:13:42.612130931,E4_Acc,2024-06-24 12:40:04.647069931,-32.0,0.0,55.0
1904-01-01 00:13:42.643380931,E4_Acc,2024-06-24 12:40:04.678319931,-32.0,1.0,55.0
1904-01-01 00:13:42.674630931,E4_Acc,2024-06-24 12:40:04.709569931,-32.0,1.0,56.0
1904-01-01 00:13:42.705880931,E4_Acc,2024-06-24 12:40:04.740819931,-32.0,1.0,56.0
1904-01-01 00:13:42.737130931,E4_Acc,2024-06-24 12:40:04.772069931,-32.0,1.0,56.0
1904-01-01 00:13:42.768390945,E4_Acc,2024-06-24 12:40:04.803329945,-32.0,1.0,56.0
1904-01-01 00:13:42.799640945,E4_Acc,2024-06-24 12:40:04.834579945,-32.0,1.0,56.0
1904-01-01 00:13:42.830890945,E4_Acc,2024-06-24 12:40:04.865829945,-32.0,1.0,55.0
1904-01-01 00:13:42.862140945,E4_Acc,2024-06-24 12:40:04.897079945,-33.0,0.0,55.0
1904-01-01 00:13:42.893390945,E4_Acc,2024-06-24 12:40:04.928329945,-32.0,0.0,55.0
1904-01-01 00:13:42.924640945,E4_Acc,2024-06-24 12:40:04.959579945,-32.0,1.0,55.0
1904-01-01 00:13:42.955890945,E4_Acc,2024-06-24 12:40:04.990829945,-32.0,1.0,56.0
1904-01-01 00:13:42.987150958,E4_Acc,2024-06-24 12:40:05.022089958,-32.0,1.0,55.0
1904-01-01 00:13:43.018400958,E4_Acc,2024-06-24 12:40:05.053339958,-32.0,1.0,55.0
1904-01-01 00:13:43.049650958,E4_Acc,2024-06-24 12:40:05.084589958,-32.0,1.0,56.0
1904-01-01 00:13:43.080900958,E4_Acc,2024-06-24 12:40:05.115839958,-32.0,1.0,56.0
1904-01-01 00:13:43.112150958,E4_Acc,2024-06-24 12:40:05.147089958,-32.0,1.0,56.0
1904-01-01 00:13:43.143400958,E4_Acc,2024-06-24 12:40:05.178339958,-32.0,1.0,56.0
1904-01-01 00:13:43.174650958,E4_Acc,2024-06-24 12:40:05.209589958,-32.0,1.0,55.0
1904-01-01 00:13:43.205910972,E4_Acc,2024-06-24 12:40:05.240849972,-32.0,1.0,56.0
1904-01-01 00:13:43.237160972,E4_Acc,2024-06-24 12:40:05.272099972,-33.0,1.0,55.0
1904-01-01 00:13:43.268410972,E4_Acc,2024-06-24 12:40:05.303349972,-32.0,0.0,56.0
1904-01-01 00:13:43.299660972,E4_Acc,2024-06-24 12:40:05.334599972,-33.0,-1.0,56.0
1904-01-01 00:13:43.330910972,E4_Acc,2024-06-24 12:40:05.365849972,-32.0,-1.0,57.0
1904-01-01 00:13:43.362160972,E4_Acc,2024-06-24 12:40:05.397099972,-32.0,-1.0,56.0
1904-01-01 00:13:43.393410972,E4_Acc,2024-06-24 12:40:05.428349972,-32.0,0.0,55.0
1904-01-01 00:13:43.424670985,E4_Acc,2024-06-24 12:40:05.459609985,-31.0,1.0,55.0
1904-01-01 00:13:43.455920985,E4_Acc,2024-06-24 12:40:05.490859985,-32.0,2.0,54.0
1904-01-01 00:13:43.487170985,E4_Acc,2024-06-24 12:40:05.522109985,-32.0,1.0,55.0
1904-01-01 00:13:43.518420985,E4_Acc,2024-06-24 12:40:05.553359985,-31.0,1.0,56.0
1904-01-01 00:13:43.549670985,E4_Acc,2024-06-24 12:40:05.584609985,-32.0,1.0,56.0
1904-01-01 00:13:43.580920985,E4_Acc,2024-06-24 12:40:05.615859985,-32.0,1.0,56.0
1904-01-01 00:13:43.612170985,E4_Acc,2024-06-24 12:40:05.647109985,-33.0,1.0,55.0
1904-01-01 00:13:43.643430999,E4_Acc,2024-06-24 12:40:05.678369999,-33.0,1.0,55.0
1904-01-01 00:13:43.674680999,E4_Acc,2024-06-24 12:40:05.709619999,-35.0,1.0,54.0
1904-01-01 00:13:43.705930999,E4_Acc,2024-06-24 12:40:05.740869999,-35.0,1.0,54.0
1904-01-01 00:13:43.737180999,E4_Acc,2024-06-24 12:40:05.772119999,-33.0,3.0,55.0
1904-01-01 00:13:43.768430999,E4_Acc,2024-06-24 12:40:05.803369999,-33.0,3.0,55.0
1904-01-01 00:13:43.799680999,E4_Acc,2024-06-24 12:40:05.834619999,-31.0,2.0,56.0
1904-01-01 00:13:43.830930999,E4_Acc,2024-06-24 12:40:05.865869999,-31.0,1.0,56.0
1904-01-01 00:13:43.862191013,E4_Acc,2024-06-24 12:40:05.897130013,-30.0,0.0,58.0
1904-01-01 00:13:43.893441013,E4_Acc,2024-06-24 12:40:05.928380013,-27.0,1.0,58.0
1904-01-01 00:13:43.924691013,E4_Acc,2024-06-24 12:40:05.959630013,-29.0,1.0,58.0
1904-01-01 00:13:43.955941013,E4_Acc,2024-06-24 12:40:05.990880013,-30.0,1.0,57.0
1904-01-01 00:13:43.987191013,E4_Acc,2024-06-24 12:40:06.022130013,-33.0,3.0,54.0
1904-01-01 00:13:44.018441013,E4_Acc,2024-06-24 12:40:06.053380013,-33.0,3.0,57.0
1904-01-01 00:13:44.049691013,E4_Acc,2024-06-24 12:40:06.084630013,-30.0,2.0,58.0
1904-01-01 00:13:44.080951026,E4_Acc,2024-06-24 12:40:06.115890026,-29.0,0.0,56.0
1904-01-01 00:13:44.112201026,E4_Acc,2024-06-24 12:40:06.147140026,-29.0,-1.0,57.0
1904-01-01 00:13:44.143451026,E4_Acc,2024-06-24 12:40:06.178390026,-30.0,0.0,57.0
1904-01-01 00:13:44.174701026,E4_Acc,2024-06-24 12:40:06.209640026,-31.0,-1.0,57.0
1904-01-01 00:13:44.205951026,E4_Acc,2024-06-24 12:40:06.240890026,-31.0,0.0,56.0
1904-01-01 00:13:44.237201026,E4_Acc,2024-06-24 12:40:06.272140026,-31.0,-1.0,56.0
1904-01-01 00:13:44.268451026,E4_Acc,2024-06-24 12:40:06.303390026,-32.0,-1.0,57.0
1904-01-01 00:13:44.299711040,E4_Acc,2024-06-24 12:40:06.334650040,-31.0,0.0,56.0
1904-01-01 00:13:44.330961040,E4_Acc,2024-06-24 12:40:06.365900040,-31.0,0.0,56.0
1904-01-01 00:13:44.362211040,E4_Acc,2024-06-24 12:40:06.397150040,-31.0,1.0,57.0
1904-01-01 00:13:44.393461040,E4_Acc,2024-06-24 12:40:06.428400040,-30.0,3.0,56.0
1904-01-01 00:13:44.424711040,E4_Acc,2024-06-24 12:40:06.459650040,-31.0,3.0,56.0
1904-01-01 00:13:44.455961040,E4_Acc,2024-06-24 12:40:06.490900040,-30.0,3.0,57.0
1904-01-01 00:13:44.487211040,E4_Acc,2024-06-24 12:40:06.522150040,-31.0,2.0,56.0
1904-01-01 00:13:44.518471053,E4_Acc,2024-06-24 12:40:06.553410053,-31.0,1.0,56.0
1904-01-01 00:13:44.549721053,E4_Acc,2024-06-24 12:40:06.584660053,-31.0,-1.0,57.0
1904-01-01 00:13:44.580971053,E4_Acc,2024-06-24 12:40:06.615910053,-28.0,-3.0,55.0
1904-01-01 00:13:44.612221053,E4_Acc,2024-06-24 12:40:06.647160053,-31.0,-5.0,61.0
1904-01-01 00:13:44.643471053,E4_Acc,2024-06-24 12:40:06.678410053,-28.0,-5.0,64.0
1904-01-01 00:13:44.674721053,E4_Acc,2024-06-24 12:40:06.709660053,-24.0,-4.0,60.0
1904-01-01 00:13:44.705981067,E4_Acc,2024-06-24 12:40:06.740920067,-26.0,-2.0,55.0
1904-01-01 00:13:44.737231067,E4_Acc,2024-06-24 12:40:06.772170067,-29.0,-1.0,54.0
1904-01-01 00:13:44.768481067,E4_Acc,2024-06-24 12:40:06.803420067,-32.0,2.0,51.0
1904-01-01 00:13:44.799731067,E4_Acc,2024-06-24 12:40:06.834670067,-34.0,3.0,48.0
1904-01-01 00:13:44.830981067,E4_Acc,2024-06-24 12:40:06.865920067,-38.0,1.0,50.0
1904-01-01 00:13:44.862231067,E4_Acc,2024-06-24 12:40:06.897170067,-44.0,1.0,51.0
1904-01-01 00:13:44.893481067,E4_Acc,2024-06-24 12:40:06.928420067,-42.0,3.0,50.0
1904-01-01 00:13:44.924741080,E4_Acc,2024-06-24 12:40:06.959680080,-41.0,3.0,50.0
1904-01-01 00:13:44.955991080,E4_Acc,2024-06-24 12:40:06.990930080,-41.0,2.0,49.0
1904-01-01 00:13:44.987241080,E4_Acc,2024-06-24 12:40:07.022180080,-40.0,1.0,50.0
1904-01-01 00:13:45.018491080,E4_Acc,2024-06-24 12:40:07.053430080,-38.0,-2.0,54.0
1904-01-01 00:13:45.049741080,E4_Acc,2024-06-24 12:40:07.084680080,-37.0,-4.0,55.0
1904-01-01 00:13:45.080991080,E4_Acc,2024-06-24 12:40:07.115930080,-37.0,-4.0,55.0
1904-01-01 00:13:45.112241080,E4_Acc,2024-06-24 12:40:07.147180080,-36.0,-4.0,55.0
1904-01-01 00:13:45.143501094,E4_Acc,2024-06-24 12:40:07.178440094,-35.0,-3.0,54.0
1904-01-01 00:13:45.174751094,E4_Acc,2024-06-24 12:40:07.209690094,-33.0,-2.0,53.0
1904-01-01 00:13:45.206001094,E4_Acc,2024-06-24 12:40:07.240940094,-35.0,-2.0,52.0
1904-01-01 00:13:45.237251094,E4_Acc,2024-06-24 12:40:07.272190094,-34.0,-2.0,53.0
1904-01-01 00:13:45.268501094,E4_Acc,2024-06-24 12:40:07.303440094,-35.0,-2.0,54.0
1904-01-01 00:13:45.299751094,E4_Acc,2024-06-24 12:40:07.334690094,-35.0,-2.0,54.0
1904-01-01 00:13:45.331001094,E4_Acc,2024-06-24 12:40:07.365940094,-36.0,-3.0,54.0
1904-01-01 00:13:45.362261108,E4_Acc,2024-06-24 12:40:07.397200108,-35.0,-3.0,54.0
1904-01-01 00:13:45.393511108,E4_Acc,2024-06-24 12:40:07.428450108,-35.0,-2.0,53.0
1904-01-01 00:13:45.424761108,E4_Acc,2024-06-24 12:40:07.459700108,-34.0,-2.0,53.0
1904-01-01 00:13:45.456011108,E4_Acc,2024-06-24 12:40:07.490950108,-33.0,-2.0,54.0
1904-01-01 00:13:45.487261108,E4_Acc,2024-06-24 12:40:07.522200108,-34.0,-5.0,55.0
1904-01-01 00:13:45.518511108,E4_Acc,2024-06-24 12:40:07.553450108,-36.0,-4.0,57.0
1904-01-01 00:13:45.549761108,E4_Acc,2024-06-24 12:40:07.584700108,-35.0,-5.0,56.0
1904-01-01 00:13:45.581020883,E4_Acc,2024-06-24 12:40:07.615959883,-36.0,-4.0,56.0
1904-01-01 00:13:45.612270883,E4_Acc,2024-06-24 12:40:07.647209883,-35.0,-4.0,56.0
1904-01-01 00:13:45.643520883,E4_Acc,2024-06-24 12:40:07.678459883,-34.0,-2.0,54.0
1904-01-01 00:13:45.674770883,E4_Acc,2024-06-24 12:40:07.709709883,-34.0,-2.0,53.0
1904-01-01 00:13:45.706020883,E4_Acc,2024-06-24 12:40:07.740959883,-35.0,-2.0,53.0
1904-01-01 00:13:45.737270883,E4_Acc,2024-06-24 12:40:07.772209883,-35.0,-2.0,53.0
1904-01-01 00:13:45.768520883,E4_Acc,2024-06-24 12:40:07.803459883,-36.0,-1.0,54.0
1904-01-01 00:13:45.799780896,E4_Acc,2024-06-24 12:40:07.834719896,-35.0,-2.0,54.0
1904-01-01 00:13:45.831030896,E4_Acc,2024-06-24 12:40:07.865969896,-36.0,-2.0,54.0
1904-01-01 00:13:45.862280896,E4_Acc,2024-06-24 12:40:07.897219896,-36.0,-2.0,55.0
1904-01-01 00:13:45.893530896,E4_Acc,2024-06-24 12:40:07.928469896,-37.0,-1.0,54.0
1904-01-01 00:13:45.924780896,E4_Acc,2024-06-24 12:40:07.959719896,-40.0,0.0,53.0
1904-01-01 00:13:45.956030896,E4_Acc,2024-06-24 12:40:07.990969896,-41.0,0.0,52.0
1904-01-01 00:13:45.987280896,E4_Acc,2024-06-24 12:40:08.022219896,-41.0,0.0,50.0
1904-01-01 00:13:46.018540910,E4_Acc,2024-06-24 12:40:08.053479910,-41.0,1.0,50.0
1904-01-01 00:13:46.049790910,E4_Acc,2024-06-24 12:40:08.084729910,-40.0,4.0,50.0
1904-01-01 00:13:46.081040910,E4_Acc,2024-06-24 12:40:08.115979910,-36.0,8.0,52.0
1904-01-01 00:13:46.112290910,E4_Acc,2024-06-24 12:40:08.147229910,-34.0,8.0,52.0
1904-01-01 00:13:46.143540910,E4_Acc,2024-06-24 12:40:08.178479910,-31.0,6.0,51.0
1904-01-01 00:13:46.174790910,E4_Acc,2024-06-24 12:40:08.209729910,-31.0,5.0,52.0
1904-01-01 00:13:46.206040910,E4_Acc,2024-06-24 12:40:08.240979910,-34.0,3.0,55.0
1904-01-01 00:13:46.237300923,E4_Acc,2024-06-24 12:40:08.272239923,-32.0,1.0,54.0
1904-01-01 00:13:46.268550923,E4_Acc,2024-06-24 12:40:08.303489923,-31.0,-1.0,55.0
1904-01-01 00:13:46.299800923,E4_Acc,2024-06-24 12:40:08.334739923,-31.0,0.0,53.0
1904-01-01 00:13:46.331050923,E4_Acc,2024-06-24 12:40:08.365989923,-32.0,1.0,54.0
1904-01-01 00:13:46.362300923,E4_Acc,2024-06-24 12:40:08.397239923,-32.0,0.0,54.0
1904-01-01 00:13:46.393550923,E4_Acc,2024-06-24 12:40:08.428489923,-36.0,-1.0,56.0
1904-01-01 00:13:46.424800923,E4_Acc,2024-06-24 12:40:08.459739923,-36.0,0.0,57.0
1904-01-01 00:13:46.456060937,E4_Acc,2024-06-24 12:40:08.490999937,-35.0,2.0,54.0
1904-01-01 00:13:46.487310937,E4_Acc,2024-06-24 12:40:08.522249937,-34.0,2.0,54.0
1904-01-01 00:13:46.518560937,E4_Acc,2024-06-24 12:40:08.553499937,-34.0,2.0,53.0
1904-01-01 00:13:46.549810937,E4_Acc,2024-06-24 12:40:08.584749937,-34.0,2.0,53.0
1904-01-01 00:13:46.581060937,E4_Acc,2024-06-24 12:40:08.615999937,-34.0,2.0,54.0
1904-01-01 00:13:46.612310937,E4_Acc,2024-06-24 12:40:08.647249937,-33.0,1.0,56.0
1904-01-01 00:13:46.643560937,E4_Acc,2024-06-24 12:40:08.678499937,-33.0,1.0,54.0
1904-01-01 00:13:46.674820951,E4_Acc,2024-06-24 12:40:08.709759951,-34.0,1.0,58.0
1904-01-01 00:13:46.706070951,E4_Acc,2024-06-24 12:40:08.741009951,-37.0,4.0,56.0
1904-01-01 00:13:46.737320951,E4_Acc,2024-06-24 12:40:08.772259951,-36.0,4.0,54.0
1904-01-01 00:13:46.768570951,E4_Acc,2024-06-24 12:40:08.803509951,-35.0,3.0,52.0
1904-01-01 00:13:46.799820951,E4_Acc,2024-06-24 12:40:08.834759951,-34.0,3.0,53.0
1904-01-01 00:13:46.831070951,E4_Acc,2024-06-24 12:40:08.866009951,-35.0,2.0,54.0
1904-01-01 00:13:46.862320951,E4_Acc,2024-06-24 12:40:08.897259951,-35.0,1.0,55.0
1904-01-01 00:13:46.893580964,E4_Acc,2024-06-24 12:40:08.928519964,-35.0,1.0,54.0
1904-01-01 00:13:46.924830964,E4_Acc,2024-06-24 12:40:08.959769964,-35.0,2.0,54.0
1904-01-01 00:13:46.956080964,E4_Acc,2024-06-24 12:40:08.991019964,-35.0,2.0,54.0
1904-01-01 00:13:46.987330964,E4_Acc,2024-06-24 12:40:09.022269964,-35.0,2.0,54.0
1904-01-01 00:13:47.018580964,E4_Acc,2024-06-24 12:40:09.053519964,-35.0,3.0,53.0
1904-01-01 00:13:47.049830964,E4_Acc,2024-06-24 12:40:09.084769964,-35.0,3.0,53.0
1904-01-01 00:13:47.081080964,E4_Acc,2024-06-24 12:40:09.116019964,-35.0,2.0,54.0
1904-01-01 00:13:47.112340978,E4_Acc,2024-06-24 12:40:09.147279978,-35.0,3.0,53.0
1904-01-01 00:13:47.143590978,E4_Acc,2024-06-24 12:40:09.178529978,-35.0,3.0,54.0
1904-01-01 00:13:47.174840978,E4_Acc,2024-06-24 12:40:09.209779978,-35.0,3.0,54.0
1904-01-01 00:13:47.206090978,E4_Acc,2024-06-24 12:40:09.241029978,-34.0,2.0,54.0
1904-01-01 00:13:47.237340978,E4_Acc,2024-06-24 12:40:09.272279978,-35.0,3.0,53.0
1904-01-01 00:13:47.268590978,E4_Acc,2024-06-24 12:40:09.303529978,-35.0,3.0,54.0
1904-01-01 00:13:47.299850991,E4_Acc,2024-06-24 12:40:09.334789991,-35.0,3.0,54.0
1904-01-01 00:13:47.331100991,E4_Acc,2024-06-24 12:40:09.366039991,-35.0,2.0,54.0
1904-01-01 00:13:47.362350991,E4_Acc,2024-06-24 12:40:09.397289991,-35.0,3.0,54.0
1904-01-01 00:13:47.393600991,E4_Acc,2024-06-24 12:40:09.428539991,-35.0,2.0,54.0
1904-01-01 00:13:47.424850991,E4_Acc,2024-06-24 12:40:09.459789991,-35.0,2.0,54.0
1904-01-01 00:13:47.456100991,E4_Acc,2024-06-24 12:40:09.491039991,-35.0,2.0,54.0
1904-01-01 00:13:47.487350990,E4_Acc,2024-06-24 12:40:09.522289990,-35.0,3.0,54.0
1904-01-01 00:13:47.518611005,E4_Acc,2024-06-24 12:40:09.553550005,-35.0,3.0,54.0
1904-01-01 00:13:47.549861005,E4_Acc,2024-06-24 12:40:09.584800005,-36.0,3.0,54.0
1904-01-01 00:13:47.581111005,E4_Acc,2024-06-24 12:40:09.616050005,-36.0,3.0,54.0
1904-01-01 00:13:47.612361005,E4_Acc,2024-06-24 12:40:09.647300005,-35.0,3.0,53.0
1904-01-01 00:13:47.643611005,E4_Acc,2024-06-24 12:40:09.678550005,-34.0,4.0,53.0
1904-01-01 00:13:47.674861005,E4_Acc,2024-06-24 12:40:09.709800005,-35.0,4.0,52.0
1904-01-01 00:13:47.706111005,E4_Acc,2024-06-24 12:40:09.741050005,-33.0,4.0,52.0
1904-01-01 00:13:47.737371019,E4_Acc,2024-06-24 12:40:09.772310019,-34.0,3.0,52.0
1904-01-01 00:13:47.768621019,E4_Acc,2024-06-24 12:40:09.803560019,-34.0,1.0,54.0
1904-01-01 00:13:47.799871019,E4_Acc,2024-06-24 12:40:09.834810019,-37.0,2.0,58.0
1904-01-01 00:13:47.831121019,E4_Acc,2024-06-24 12:40:09.866060019,-35.0,3.0,55.0
1904-01-01 00:13:47.862371019,E4_Acc,2024-06-24 12:40:09.897310019,-35.0,3.0,53.0
1904-01-01 00:13:47.893621019,E4_Acc,2024-06-24 12:40:09.928560019,-34.0,3.0,53.0
1904-01-01 00:13:47.924871019,E4_Acc,2024-06-24 12:40:09.959810019,-35.0,3.0,52.0
1904-01-01 00:13:47.956131032,E4_Acc,2024-06-24 12:40:09.991070032,-35.0,3.0,54.0
1904-01-01 00:13:47.987381032,E4_Acc,2024-06-24 12:40:10.022320032,-36.0,3.0,55.0
1904-01-01 00:13:48.018631032,E4_Acc,2024-06-24 12:40:10.053570032,-36.0,3.0,56.0
1904-01-01 00:13:48.049881032,E4_Acc,2024-06-24 12:40:10.084820032,-36.0,2.0,55.0
1904-01-01 00:13:48.081131032,E4_Acc,2024-06-24 12:40:10.116070032,-34.0,2.0,54.0
1904-01-01 00:13:48.112381032,E4_Acc,2024-06-24 12:40:10.147320032,-35.0,2.0,54.0
1904-01-01 00:13:48.143631032,E4_Acc,2024-06-24 12:40:10.178570032,-35.0,2.0,54.0
1904-01-01 00:13:48.174891046,E4_Acc,2024-06-24 12:40:10.209830046,-35.0,1.0,53.0
1904-01-01 00:13:48.206141046,E4_Acc,2024-06-24 12:40:10.241080046,-34.0,3.0,53.0
1904-01-01 00:13:48.237391046,E4_Acc,2024-06-24 12:40:10.272330046,-34.0,3.0,54.0
1904-01-01 00:13:48.268641046,E4_Acc,2024-06-24 12:40:10.303580046,-35.0,3.0,54.0
1904-01-01 00:13:48.299891046,E4_Acc,2024-06-24 12:40:10.334830046,-35.0,4.0,53.0
1904-01-01 00:13:48.331141046,E4_Acc,2024-06-24 12:40:10.366080046,-35.0,3.0,54.0
1904-01-01 00:13:48.362391046,E4_Acc,2024-06-24 12:40:10.397330046,-35.0,2.0,53.0
1904-01-01 00:13:48.393651059,E4_Acc,2024-06-24 12:40:10.428590059,-34.0,3.0,54.0
1904-01-01 00:13:48.424901059,E4_Acc,2024-06-24 12:40:10.459840059,-35.0,2.0,54.0
1904-01-01 00:13:48.456151059,E4_Acc,2024-06-24 12:40:10.491090059,-35.0,2.0,54.0
1904-01-01 00:13:48.487401059,E4_Acc,2024-06-24 12:40:10.522340059,-34.0,3.0,53.0
1904-01-01 00:13:48.518651059,E4_Acc,2024-06-24 12:40:10.553590059,-34.0,2.0,54.0
1904-01-01 00:13:48.549901059,E4_Acc,2024-06-24 12:40:10.584840059,-35.0,3.0,54.0
1904-01-01 00:13:48.581151059,E4_Acc,2024-06-24 12:40:10.616090059,-35.0,3.0,54.0
1904-01-01 00:13:48.612411073,E4_Acc,2024-06-24 12:40:10.647350073,-35.0,3.0,54.0
1904-01-01 00:13:48.643661073,E4_Acc,2024-06-24 12:40:10.678600073,-35.0,3.0,54.0
1904-01-01 00:13:48.674911073,E4_Acc,2024-06-24 12:40:10.709850073,-34.0,3.0,54.0
1904-01-01 00:13:48.706161073,E4_Acc,2024-06-24 12:40:10.741100073,-34.0,3.0,54.0
1904-01-01 00:13:48.737411073,E4_Acc,2024-06-24 12:40:10.772350073,-35.0,3.0,54.0
1904-01-01 00:13:48.768661073,E4_Acc,2024-06-24 12:40:10.803600073,-35.0,4.0,53.0
1904-01-01 00:13:48.799911073,E4_Acc,2024-06-24 12:40:10.834850073,-35.0,4.0,53.0
1904-01-01 00:13:48.831171086,E4_Acc,2024-06-24 12:40:10.866110086,-35.0,3.0,54.0
1904-01-01 00:13:48.862421086,E4_Acc,2024-06-24 12:40:10.897360086,-35.0,3.0,54.0
1904-01-01 00:13:48.893671086,E4_Acc,2024-06-24 12:40:10.928610086,-35.0,3.0,54.0
1904-01-01 00:13:48.924921086,E4_Acc,2024-06-24 12:40:10.959860086,-35.0,2.0,54.0
1904-01-01 00:13:48.956171086,E4_Acc,2024-06-24 12:40:10.991110086,-35.0,3.0,53.0
1904-01-01 00:13:48.987421086,E4_Acc,2024-06-24 12:40:11.022360086,-34.0,3.0,54.0
1904-01-01 00:13:49.018671086,E4_Acc,2024-06-24 12:40:11.053610086,-35.0,4.0,53.0
1904-01-01 00:13:49.049931100,E4_Acc,2024-06-24 12:40:11.084870100,-35.0,4.0,54.0
1904-01-01 00:13:49.081181100,E4_Acc,2024-06-24 12:40:11.116120100,-35.0,3.0,53.0
1904-01-01 00:13:49.112431100,E4_Acc,2024-06-24 12:40:11.147370100,-35.0,3.0,53.0
1904-01-01 00:13:49.143681100,E4_Acc,2024-06-24 12:40:11.178620100,-35.0,3.0,54.0
1904-01-01 00:13:49.174931100,E4_Acc,2024-06-24 12:40:11.209870100,-35.0,3.0,54.0
1904-01-01 00:13:49.206181100,E4_Acc,2024-06-24 12:40:11.241120100,-35.0,3.0,54.0
1904-01-01 00:13:49.237431100,E4_Acc,2024-06-24 12:40:11.272370100,-36.0,3.0,54.0
1904-01-01 00:13:49.268691114,E4_Acc,2024-06-24 12:40:11.303630114,-36.0,3.0,53.0
1904-01-01 00:13:49.299941114,E4_Acc,2024-06-24 12:40:11.334880114,-35.0,3.0,53.0
1904-01-01 00:13:49.331191114,E4_Acc,2024-06-24 12:40:11.366130114,-35.0,3.0,54.0
1904-01-01 00:13:49.362441114,E4_Acc,2024-06-24 12:40:11.397380114,-36.0,2.0,55.0
1904-01-01 00:13:49.393691114,E4_Acc,2024-06-24 12:40:11.428630114,-36.0,-2.0,54.0
1904-01-01 00:13:49.424941114,E4_Acc,2024-06-24 12:40:11.459880114,-36.0,-4.0,61.0
1904-01-01 00:13:49.456191114,E4_Acc,2024-06-24 12:40:11.491130114,-41.0,-7.0,64.0
1904-01-01 00:13:49.487450889,E4_Acc,2024-06-24 12:40:11.522389889,-39.0,-13.0,59.0
1904-01-01 00:13:49.518700889,E4_Acc,2024-06-24 12:40:11.553639889,-38.0,-14.0,57.0
1904-01-01 00:13:49.549950889,E4_Acc,2024-06-24 12:40:11.584889889,-40.0,-9.0,54.0
1904-01-01 00:13:49.581200889,E4_Acc,2024-06-24 12:40:11.616139889,-39.0,-6.0,53.0
1904-01-01 00:13:49.612450889,E4_Acc,2024-06-24 12:40:11.647389889,-41.0,1.0,49.0
1904-01-01 00:13:49.643700889,E4_Acc,2024-06-24 12:40:11.678639889,-42.0,7.0,45.0
1904-01-01 00:13:49.674960902,E4_Acc,2024-06-24 12:40:11.709899902,-40.0,9.0,46.0
1904-01-01 00:13:49.706210902,E4_Acc,2024-06-24 12:40:11.741149902,-38.0,11.0,43.0
1904-01-01 00:13:49.737460902,E4_Acc,2024-06-24 12:40:11.772399902,-40.0,10.0,42.0
1904-01-01 00:13:49.768710902,E4_Acc,2024-06-24 12:40:11.803649902,-42.0,10.0,42.0
1904-01-01 00:13:49.799960902,E4_Acc,2024-06-24 12:40:11.834899902,-36.0,11.0,42.0
1904-01-01 00:13:49.831210902,E4_Acc,2024-06-24 12:40:11.866149902,-35.0,10.0,42.0
1904-01-01 00:13:49.862460902,E4_Acc,2024-06-24 12:40:11.897399902,-37.0,7.0,46.0
1904-01-01 00:13:49.893720916,E4_Acc,2024-06-24 12:40:11.928659916,-39.0,5.0,49.0
1904-01-01 00:13:49.924970916,E4_Acc,2024-06-24 12:40:11.959909916,-43.0,2.0,54.0
1904-01-01 00:13:49.956220916,E4_Acc,2024-06-24 12:40:11.991159916,-45.0,2.0,52.0
1904-01-01 00:13:49.987470916,E4_Acc,2024-06-24 12:40:12.022409916,-46.0,2.0,53.0
1904-01-01 00:13:50.018720916,E4_Acc,2024-06-24 12:40:12.053659916,-40.0,-1.0,52.0
1904-01-01 00:13:50.049970916,E4_Acc,2024-06-24 12:40:12.084909916,-37.0,-2.0,51.0
1904-01-01 00:13:50.081220916,E4_Acc,2024-06-24 12:40:12.116159916,-32.0,-3.0,51.0
1904-01-01 00:13:50.112480930,E4_Acc,2024-06-24 12:40:12.147419930,-30.0,-3.0,52.0
1904-01-01 00:13:50.143730930,E4_Acc,2024-06-24 12:40:12.178669930,-29.0,-3.0,53.0
1904-01-01 00:13:50.174980930,E4_Acc,2024-06-24 12:40:12.209919930,-30.0,-6.0,54.0
1904-01-01 00:13:50.206230930,E4_Acc,2024-06-24 12:40:12.241169930,-34.0,-7.0,56.0
1904-01-01 00:13:50.237480930,E4_Acc,2024-06-24 12:40:12.272419930,-35.0,-9.0,58.0
1904-01-01 00:13:50.268730930,E4_Acc,2024-06-24 12:40:12.303669930,-36.0,-10.0,57.0
1904-01-01 00:13:50.299980930,E4_Acc,2024-06-24 12:40:12.334919930,-36.0,-10.0,56.0
1904-01-01 00:13:50.331240943,E4_Acc,2024-06-24 12:40:12.366179943,-34.0,-9.0,56.0
1904-01-01 00:13:50.362490943,E4_Acc,2024-06-24 12:40:12.397429943,-32.0,-7.0,54.0
1904-01-01 00:13:50.393740943,E4_Acc,2024-06-24 12:40:12.428679943,-32.0,-6.0,54.0
1904-01-01 00:13:50.424990943,E4_Acc,2024-06-24 12:40:12.459929943,-32.0,-6.0,55.0
1904-01-01 00:13:50.456240943,E4_Acc,2024-06-24 12:40:12.491179943,-32.0,-7.0,55.0
1904-01-01 00:13:50.487490943,E4_Acc,2024-06-24 12:40:12.522429943,-33.0,-7.0,55.0
1904-01-01 00:13:50.518740943,E4_Acc,2024-06-24 12:40:12.553679943,-33.0,-8.0,55.0
1904-01-01 00:13:50.550000957,E4_Acc,2024-06-24 12:40:12.584939957,-33.0,-9.0,54.0
1904-01-01 00:13:50.581250957,E4_Acc,2024-06-24 12:40:12.616189957,-34.0,-9.0,56.0
1904-01-01 00:13:50.612500957,E4_Acc,2024-06-24 12:40:12.647439957,-36.0,-8.0,57.0
1904-01-01 00:13:50.643750957,E4_Acc,2024-06-24 12:40:12.678689957,-34.0,-8.0,55.0
1904-01-01 00:13:50.675000957,E4_Acc,2024-06-24 12:40:12.709939957,-33.0,-9.0,55.0
1904-01-01 00:13:50.706250957,E4_Acc,2024-06-24 12:40:12.741189957,-33.0,-9.0,55.0
1904-01-01 00:13:50.737500957,E4_Acc,2024-06-24 12:40:12.772439957,-33.0,-8.0,55.0
1904-01-01 00:13:50.768760970,E4_Acc,2024-06-24 12:40:12.803699970,-33.0,-8.0,55.0
1904-01-01 00:13:50.800010970,E4_Acc,2024-06-24 12:40:12.834949970,-33.0,-8.0,55.0
1904-01-01 00:13:50.831260970,E4_Acc,2024-06-24 12:40:12.866199970,-34.0,-8.0,54.0
1904-01-01 00:13:50.862510970,E4_Acc,2024-06-24 12:40:12.897449970,-34.0,-8.0,54.0
1904-01-01 00:13:50.893760970,E4_Acc,2024-06-24 12:40:12.928699970,-33.0,-8.0,54.0
1904-01-01 00:13:50.925010970,E4_Acc,2024-06-24 12:40:12.959949970,-34.0,-8.0,55.0
1904-01-01 00:13:50.956260970,E4_Acc,2024-06-24 12:40:12.991199970,-33.0,-8.0,55.0
1904-01-01 00:13:50.987520984,E4_Acc,2024-06-24 12:40:13.022459984,-33.0,-8.0,54.0
1904-01-01 00:13:51.018770984,E4_Acc,2024-06-24 12:40:13.053709984,-34.0,-9.0,54.0
1904-01-01 00:13:51.050020984,E4_Acc,2024-06-24 12:40:13.084959984,-32.0,-8.0,53.0
1904-01-01 00:13:51.081270984,E4_Acc,2024-06-24 12:40:13.116209984,-33.0,-7.0,53.0
1904-01-01 00:13:51.112520984,E4_Acc,2024-06-24 12:40:13.147459984,-34.0,-7.0,55.0
1904-01-01 00:13:51.143770984,E4_Acc,2024-06-24 12:40:13.178709984,-33.0,-7.0,55.0
1904-01-01 00:13:51.175020984,E4_Acc,2024-06-24 12:40:13.209959984,-33.0,-7.0,54.0
1904-01-01 00:13:51.206280997,E4_Acc,2024-06-24 12:40:13.241219997,-34.0,-9.0,54.0
1904-01-01 00:13:51.237530997,E4_Acc,2024-06-24 12:40:13.272469997,-35.0,-9.0,54.0
1904-01-01 00:13:51.268780997,E4_Acc,2024-06-24 12:40:13.303719997,-34.0,-10.0,54.0
1904-01-01 00:13:51.300030997,E4_Acc,2024-06-24 12:40:13.334969997,-34.0,-9.0,54.0
1904-01-01 00:13:51.331280997,E4_Acc,2024-06-24 12:40:13.366219997,-33.0,-9.0,55.0
1904-01-01 00:13:51.362530997,E4_Acc,2024-06-24 12:40:13.397469997,-34.0,-8.0,54.0
1904-01-01 00:13:51.393780997,E4_Acc,2024-06-24 12:40:13.428719997,-34.0,-7.0,54.0
1904-01-01 00:13:51.425041011,E4_Acc,2024-06-24 12:40:13.459980011,-34.0,-7.0,55.0
1904-01-01 00:13:51.456291011,E4_Acc,2024-06-24 12:40:13.491230011,-33.0,-7.0,54.0
1904-01-01 00:13:51.487541010,E4_Acc,2024-06-24 12:40:13.522480010,-33.0,-7.0,53.0
1904-01-01 00:13:51.518791011,E4_Acc,2024-06-24 12:40:13.553730011,-34.0,-7.0,53.0
1904-01-01 00:13:51.550041011,E4_Acc,2024-06-24 12:40:13.584980011,-34.0,-8.0,53.0
1904-01-01 00:13:51.581291011,E4_Acc,2024-06-24 12:40:13.616230011,-34.0,-8.0,54.0
1904-01-01 00:13:51.612541011,E4_Acc,2024-06-24 12:40:13.647480011,-33.0,-7.0,54.0
1904-01-01 00:13:51.643801025,E4_Acc,2024-06-24 12:40:13.678740025,-37.0,-6.0,50.0
1904-01-01 00:13:51.675051025,E4_Acc,2024-06-24 12:40:13.709990025,-35.0,-7.0,55.0
1904-01-01 00:13:51.706301025,E4_Acc,2024-06-24 12:40:13.741240025,-34.0,-9.0,56.0
1904-01-01 00:13:51.737551025,E4_Acc,2024-06-24 12:40:13.772490025,-34.0,-9.0,55.0
1904-01-01 00:13:51.768801025,E4_Acc,2024-06-24 12:40:13.803740025,-33.0,-9.0,54.0
1904-01-01 00:13:51.800051025,E4_Acc,2024-06-24 12:40:13.834990025,-34.0,-9.0,54.0
1904-01-01 00:13:51.831301025,E4_Acc,2024-06-24 12:40:13.866240025,-33.0,-9.0,54.0
1904-01-01 00:13:51.862561038,E4_Acc,2024-06-24 12:40:13.897500038,-33.0,-8.0,54.0
1904-01-01 00:13:51.893811038,E4_Acc,2024-06-24 12:40:13.928750038,-33.0,-8.0,54.0
1904-01-01 00:13:51.925061038,E4_Acc,2024-06-24 12:40:13.960000038,-34.0,-7.0,54.0
1904-01-01 00:13:51.956311038,E4_Acc,2024-06-24 12:40:13.991250038,-34.0,-7.0,54.0
1904-01-01 00:13:51.987561038,E4_Acc,2024-06-24 12:40:14.022500038,-34.0,-7.0,54.0
1904-01-01 00:13:52.018811038,E4_Acc,2024-06-24 12:40:14.053750038,-33.0,-8.0,54.0
1904-01-01 00:13:52.050071052,E4_Acc,2024-06-24 12:40:14.085010052,-32.0,-10.0,54.0
1904-01-01 00:13:52.081321052,E4_Acc,2024-06-24 12:40:14.116260052,-41.0,-9.0,60.0
1904-01-01 00:13:52.112571052,E4_Acc,2024-06-24 12:40:14.147510052,-40.0,-8.0,62.0
1904-01-01 00:13:52.143821052,E4_Acc,2024-06-24 12:40:14.178760052,-34.0,-8.0,56.0
1904-01-01 00:13:52.175071052,E4_Acc,2024-06-24 12:40:14.210010052,-35.0,-9.0,54.0
1904-01-01 00:13:52.206321052,E4_Acc,2024-06-24 12:40:14.241260052,-35.0,-9.0,53.0
1904-01-01 00:13:52.237571052,E4_Acc,2024-06-24 12:40:14.272510052,-34.0,-8.0,53.0
1904-01-01 00:13:52.268831065,E4_Acc,2024-06-24 12:40:14.303770065,-34.0,-7.0,54.0
1904-01-01 00:13:52.300081065,E4_Acc,2024-06-24 12:40:14.335020065,-34.0,-6.0,54.0
1904-01-01 00:13:52.331331065,E4_Acc,2024-06-24 12:40:14.366270065,-36.0,-4.0,54.0
1904-01-01 00:13:52.362581065,E4_Acc,2024-06-24 12:40:14.397520065,-37.0,-2.0,54.0
1904-01-01 00:13:52.393831065,E4_Acc,2024-06-24 12:40:14.428770065,-36.0,0.0,55.0
1904-01-01 00:13:52.425081065,E4_Acc,2024-06-24 12:40:14.460020065,-37.0,2.0,52.0
1904-01-01 00:13:52.456331065,E4_Acc,2024-06-24 12:40:14.491270065,-36.0,2.0,51.0
1904-01-01 00:13:52.487591079,E4_Acc,2024-06-24 12:40:14.522530079,-31.0,5.0,49.0
1904-01-01 00:13:52.518841079,E4_Acc,2024-06-24 12:40:14.553780079,-32.0,5.0,46.0
1904-01-01 00:13:52.550091079,E4_Acc,2024-06-24 12:40:14.585030079,-29.0,5.0,49.0
1904-01-01 00:13:52.581341079,E4_Acc,2024-06-24 12:40:14.616280079,-31.0,6.0,49.0
1904-01-01 00:13:52.612591079,E4_Acc,2024-06-24 12:40:14.647530079,-32.0,4.0,52.0
1904-01-01 00:13:52.643841079,E4_Acc,2024-06-24 12:40:14.678780079,-32.0,1.0,54.0
1904-01-01 00:13:52.675091079,E4_Acc,2024-06-24 12:40:14.710030079,-29.0,0.0,54.0
1904-01-01 00:13:52.706351092,E4_Acc,2024-06-24 12:40:14.741290092,-33.0,-1.0,52.0
1904-01-01 00:13:52.737601092,E4_Acc,2024-06-24 12:40:14.772540092,-37.0,-2.0,58.0
1904-01-01 00:13:52.768851092,E4_Acc,2024-06-24 12:40:14.803790092,-32.0,-2.0,57.0
1904-01-01 00:13:52.800101092,E4_Acc,2024-06-24 12:40:14.835040092,-37.0,-4.0,55.0
1904-01-01 00:13:52.831351092,E4_Acc,2024-06-24 12:40:14.866290092,-39.0,-6.0,59.0
1904-01-01 00:13:52.862601092,E4_Acc,2024-06-24 12:40:14.897540092,-34.0,-8.0,60.0
1904-01-01 00:13:52.893851092,E4_Acc,2024-06-24 12:40:14.928790092,-32.0,-7.0,57.0
1904-01-01 00:13:52.925111106,E4_Acc,2024-06-24 12:40:14.960050106,-28.0,-6.0,58.0
1904-01-01 00:13:52.956361106,E4_Acc,2024-06-24 12:40:14.991300106,-27.0,-4.0,56.0
1904-01-01 00:13:52.987611106,E4_Acc,2024-06-24 12:40:15.022550106,-30.0,-4.0,54.0
1904-01-01 00:13:53.018861106,E4_Acc,2024-06-24 12:40:15.053800106,-31.0,-3.0,57.0
1904-01-01 00:13:53.050111106,E4_Acc,2024-06-24 12:40:15.085050106,-33.0,-2.0,57.0
1904-01-01 00:13:53.081361106,E4_Acc,2024-06-24 12:40:15.116300106,-33.0,-2.0,57.0
1904-01-01 00:13:53.112611106,E4_Acc,2024-06-24 12:40:15.147550106,-36.0,-3.0,56.0
1904-01-01 00:13:53.143870881,E4_Acc,2024-06-24 12:40:15.178809881,-36.0,-3.0,57.0
1904-01-01 00:13:53.175120881,E4_Acc,2024-06-24 12:40:15.210059881,-35.0,-2.0,57.0
1904-01-01 00:13:53.206370881,E4_Acc,2024-06-24 12:40:15.241309881,-32.0,-2.0,56.0
1904-01-01 00:13:53.237620881,E4_Acc,2024-06-24 12:40:15.272559881,-34.0,-2.0,55.0
1904-01-01 00:13:53.268870881,E4_Acc,2024-06-24 12:40:15.303809881,-31.0,0.0,54.0
1904-01-01 00:13:53.300120881,E4_Acc,2024-06-24 12:40:15.335059881,-31.0,0.0,51.0
1904-01-01 00:13:53.331370881,E4_Acc,2024-06-24 12:40:15.366309881,-33.0,1.0,49.0
1904-01-01 00:13:53.362630895,E4_Acc,2024-06-24 12:40:15.397569895,-30.0,1.0,51.0
1904-01-01 00:13:53.393880895,E4_Acc,2024-06-24 12:40:15.428819895,-32.0,1.0,51.0
1904-01-01 00:13:53.425130895,E4_Acc,2024-06-24 12:40:15.460069895,-36.0,0.0,55.0
1904-01-01 00:13:53.456380895,E4_Acc,2024-06-24 12:40:15.491319895,-35.0,-1.0,55.0
1904-01-01 00:13:53.487630894,E4_Acc,2024-06-24 12:40:15.522569894,-34.0,-2.0,55.0
1904-01-01 00:13:53.518880895,E4_Acc,2024-06-24 12:40:15.553819895,-34.0,-3.0,56.0
1904-01-01 00:13:53.550130895,E4_Acc,2024-06-24 12:40:15.585069895,-34.0,-3.0,54.0
1904-01-01 00:13:53.581390908,E4_Acc,2024-06-24 12:40:15.616329908,-33.0,-4.0,54.0
1904-01-01 00:13:53.612640908,E4_Acc,2024-06-24 12:40:15.647579908,-33.0,-4.0,55.0
1904-01-01 00:13:53.643890908,E4_Acc,2024-06-24 12:40:15.678829908,-33.0,-4.0,55.0
1904-01-01 00:13:53.675140908,E4_Acc,2024-06-24 12:40:15.710079908,-33.0,-3.0,55.0
1904-01-01 00:13:53.706390908,E4_Acc,2024-06-24 12:40:15.741329908,-33.0,-2.0,55.0
1904-01-01 00:13:53.737640908,E4_Acc,2024-06-24 12:40:15.772579908,-34.0,-1.0,55.0
1904-01-01 00:13:53.768890908,E4_Acc,2024-06-24 12:40:15.803829908,-35.0,0.0,54.0
1904-01-01 00:13:53.800150922,E4_Acc,2024-06-24 12:40:15.835089922,-34.0,0.0,54.0
1904-01-01 00:13:53.831400922,E4_Acc,2024-06-24 12:40:15.866339922,-33.0,-2.0,53.0
1904-01-01 00:13:53.862650922,E4_Acc,2024-06-24 12:40:15.897589922,-33.0,-1.0,53.0
1904-01-01 00:13:53.893900922,E4_Acc,2024-06-24 12:40:15.928839922,-32.0,-2.0,54.0
1904-01-01 00:13:53.925150922,E4_Acc,2024-06-24 12:40:15.960089922,-33.0,-4.0,56.0
1904-01-01 00:13:53.956400922,E4_Acc,2024-06-24 12:40:15.991339922,-32.0,-3.0,55.0
1904-01-01 00:13:53.987650922,E4_Acc,2024-06-24 12:40:16.022589922,-36.0,-2.0,53.0
1904-01-01 00:13:54.018910936,E4_Acc,2024-06-24 12:40:16.053849936,-40.0,-2.0,54.0
1904-01-01 00:13:54.050160936,E4_Acc,2024-06-24 12:40:16.085099936,-42.0,-2.0,54.0
1904-01-01 00:13:54.081410936,E4_Acc,2024-06-24 12:40:16.116349936,-40.0,-5.0,54.0
1904-01-01 00:13:54.112660936,E4_Acc,2024-06-24 12:40:16.147599936,-37.0,-5.0,54.0
1904-01-01 00:13:54.143910936,E4_Acc,2024-06-24 12:40:16.178849936,-32.0,-5.0,53.0
1904-01-01 00:13:54.175160936,E4_Acc,2024-06-24 12:40:16.210099936,-28.0,-5.0,55.0
1904-01-01 00:13:54.206410936,E4_Acc,2024-06-24 12:40:16.241349936,-27.0,-6.0,56.0
1904-01-01 00:13:54.237670949,E4_Acc,2024-06-24 12:40:16.272609949,-31.0,-5.0,57.0
1904-01-01 00:13:54.268920949,E4_Acc,2024-06-24 12:40:16.303859949,-33.0,-4.0,57.0
1904-01-01 00:13:54.300170949,E4_Acc,2024-06-24 12:40:16.335109949,-35.0,-3.0,58.0
1904-01-01 00:13:54.331420949,E4_Acc,2024-06-24 12:40:16.366359949,-36.0,-3.0,56.0
1904-01-01 00:13:54.362670949,E4_Acc,2024-06-24 12:40:16.397609949,-39.0,-1.0,52.0
1904-01-01 00:13:54.393920949,E4_Acc,2024-06-24 12:40:16.428859949,-43.0,-1.0,52.0
1904-01-01 00:13:54.425170949,E4_Acc,2024-06-24 12:40:16.460109949,-43.0,-1.0,52.0
1904-01-01 00:13:54.456430963,E4_Acc,2024-06-24 12:40:16.491369963,-40.0,-1.0,52.0
1904-01-01 00:13:54.487680963,E4_Acc,2024-06-24 12:40:16.522619963,-38.0,-1.0,51.0
1904-01-01 00:13:54.518930963,E4_Acc,2024-06-24 12:40:16.553869963,-36.0,0.0,51.0
1904-01-01 00:13:54.550180963,E4_Acc,2024-06-24 12:40:16.585119963,-34.0,0.0,52.0
1904-01-01 00:13:54.581430963,E4_Acc,2024-06-24 12:40:16.616369963,-33.0,-1.0,53.0
1904-01-01 00:13:54.612680963,E4_Acc,2024-06-24 12:40:16.647619963,-33.0,-1.0,53.0
1904-01-01 00:13:54.643940976,E4_Acc,2024-06-24 12:40:16.678879976,-34.0,-1.0,54.0
1904-01-01 00:13:54.675190976,E4_Acc,2024-06-24 12:40:16.710129976,-35.0,-2.0,54.0
1904-01-01 00:13:54.706440976,E4_Acc,2024-06-24 12:40:16.741379976,-38.0,-2.0,53.0
1904-01-01 00:13:54.737690976,E4_Acc,2024-06-24 12:40:16.772629976,-38.0,-2.0,53.0
1904-01-01 00:13:54.768940976,E4_Acc,2024-06-24 12:40:16.803879976,-38.0,-1.0,53.0
1904-01-01 00:13:54.800190976,E4_Acc,2024-06-24 12:40:16.835129976,-37.0,0.0,52.0
1904-01-01 00:13:54.831440976,E4_Acc,2024-06-24 12:40:16.866379976,-37.0,-1.0,51.0
1904-01-01 00:13:54.862700990,E4_Acc,2024-06-24 12:40:16.897639990,-35.0,-1.0,52.0
1904-01-01 00:13:54.893950990,E4_Acc,2024-06-24 12:40:16.928889990,-33.0,-1.0,53.0
1904-01-01 00:13:54.925200990,E4_Acc,2024-06-24 12:40:16.960139990,-34.0,-1.0,53.0
1904-01-01 00:13:54.956450990,E4_Acc,2024-06-24 12:40:16.991389990,-34.0,-3.0,54.0
1904-01-01 00:13:54.987700990,E4_Acc,2024-06-24 12:40:17.022639990,-34.0,-4.0,55.0
1904-01-01 00:13:55.018950990,E4_Acc,2024-06-24 12:40:17.053889990,-35.0,-4.0,56.0
1904-01-01 00:13:55.050200990,E4_Acc,2024-06-24 12:40:17.085139990,-34.0,-4.0,55.0
1904-01-01 00:13:55.081461003,E4_Acc,2024-06-24 12:40:17.116400003,-36.0,-2.0,53.0
1904-01-01 00:13:55.112711003,E4_Acc,2024-06-24 12:40:17.147650003,-37.0,0.0,52.0
1904-01-01 00:13:55.143961003,E4_Acc,2024-06-24 12:40:17.178900003,-39.0,1.0,52.0
1904-01-01 00:13:55.175211003,E4_Acc,2024-06-24 12:40:17.210150003,-41.0,0.0,53.0
1904-01-01 00:13:55.206461003,E4_Acc,2024-06-24 12:40:17.241400003,-41.0,-2.0,52.0
1904-01-01 00:13:55.237711003,E4_Acc,2024-06-24 12:40:17.272650003,-38.0,-4.0,52.0
1904-01-01 00:13:55.268961003,E4_Acc,2024-06-24 12:40:17.303900003,-43.0,-6.0,50.0
1904-01-01 00:13:55.300221017,E4_Acc,2024-06-24 12:40:17.335160017,-44.0,-5.0,48.0
1904-01-01 00:13:55.331471017,E4_Acc,2024-06-24 12:40:17.366410017,-39.0,-5.0,49.0
1904-01-01 00:13:55.362721017,E4_Acc,2024-06-24 12:40:17.397660017,-39.0,-5.0,50.0
1904-01-01 00:13:55.393971017,E4_Acc,2024-06-24 12:40:17.428910017,-37.0,-5.0,52.0
1904-01-01 00:13:55.425221017,E4_Acc,2024-06-24 12:40:17.460160017,-40.0,-4.0,51.0
1904-01-01 00:13:55.456471017,E4_Acc,2024-06-24 12:40:17.491410017,-40.0,-4.0,51.0
1904-01-01 00:13:55.487721017,E4_Acc,2024-06-24 12:40:17.522660017,-34.0,-3.0,53.0
1904-01-01 00:13:55.518981031,E4_Acc,2024-06-24 12:40:17.553920031,-37.0,-1.0,51.0
1904-01-01 00:13:55.550231031,E4_Acc,2024-06-24 12:40:17.585170031,-38.0,-1.0,51.0
1904-01-01 00:13:55.581481031,E4_Acc,2024-06-24 12:40:17.616420031,-39.0,-1.0,50.0
1904-01-01 00:13:55.612731031,E4_Acc,2024-06-24 12:40:17.647670031,-40.0,-1.0,52.0
1904-01-01 00:13:55.643981031,E4_Acc,2024-06-24 12:40:17.678920031,-43.0,-2.0,51.0
1904-01-01 00:13:55.675231031,E4_Acc,2024-06-24 12:40:17.710170031,-44.0,-4.0,51.0
1904-01-01 00:13:55.706481031,E4_Acc,2024-06-24 12:40:17.741420031,-44.0,-5.0,50.0
1904-01-01 00:13:55.737741044,E4_Acc,2024-06-24 12:40:17.772680044,-45.0,-5.0,48.0
1904-01-01 00:13:55.768991044,E4_Acc,2024-06-24 12:40:17.803930044,-41.0,-6.0,49.0
1904-01-01 00:13:55.800241044,E4_Acc,2024-06-24 12:40:17.835180044,-39.0,-6.0,49.0
1904-01-01 00:13:55.831491044,E4_Acc,2024-06-24 12:40:17.866430044,-39.0,-5.0,48.0
1904-01-01 00:13:55.862741044,E4_Acc,2024-06-24 12:40:17.897680044,-38.0,-4.0,50.0
1904-01-01 00:13:55.893991044,E4_Acc,2024-06-24 12:40:17.928930044,-36.0,-3.0,51.0
1904-01-01 00:13:55.925241044,E4_Acc,2024-06-24 12:40:17.960180044,-37.0,-3.0,50.0
1904-01-01 00:13:55.956501058,E4_Acc,2024-06-24 12:40:17.991440058,-37.0,-2.0,53.0
1904-01-01 00:13:55.987751058,E4_Acc,2024-06-24 12:40:18.022690058,-37.0,-1.0,52.0
1904-01-01 00:13:56.019001058,E4_Acc,2024-06-24 12:40:18.053940058,-35.0,-1.0,51.0
1904-01-01 00:13:56.050251058,E4_Acc,2024-06-24 12:40:18.085190058,-39.0,-3.0,53.0
1904-01-01 00:13:56.081501058,E4_Acc,2024-06-24 12:40:18.116440058,-43.0,-5.0,52.0
1904-01-01 00:13:56.112751058,E4_Acc,2024-06-24 12:40:18.147690058,-43.0,-7.0,51.0
1904-01-01 00:13:56.144001058,E4_Acc,2024-06-24 12:40:18.178940058,-43.0,-6.0,49.0
1904-01-01 00:13:56.175261071,E4_Acc,2024-06-24 12:40:18.210200071,-43.0,-5.0,48.0
1904-01-01 00:13:56.206511071,E4_Acc,2024-06-24 12:40:18.241450071,-39.0,-5.0,47.0
1904-01-01 00:13:56.237761071,E4_Acc,2024-06-24 12:40:18.272700071,-37.0,-4.0,48.0
1904-01-01 00:13:56.269011071,E4_Acc,2024-06-24 12:40:18.303950071,-37.0,-4.0,49.0
1904-01-01 00:13:56.300261071,E4_Acc,2024-06-24 12:40:18.335200071,-39.0,-5.0,50.0
1904-01-01 00:13:56.331511071,E4_Acc,2024-06-24 12:40:18.366450071,-41.0,-5.0,50.0
1904-01-01 00:13:56.362761071,E4_Acc,2024-06-24 12:40:18.397700071,-43.0,-6.0,50.0
1904-01-01 00:13:56.394021085,E4_Acc,2024-06-24 12:40:18.428960085,-43.0,-6.0,49.0
1904-01-01 00:13:56.425271085,E4_Acc,2024-06-24 12:40:18.460210085,-44.0,-6.0,48.0
1904-01-01 00:13:56.456521085,E4_Acc,2024-06-24 12:40:18.491460085,-43.0,-5.0,50.0
1904-01-01 00:13:56.487771085,E4_Acc,2024-06-24 12:40:18.522710085,-43.0,-5.0,49.0
1904-01-01 00:13:56.519021085,E4_Acc,2024-06-24 12:40:18.553960085,-41.0,-5.0,49.0
1904-01-01 00:13:56.550271085,E4_Acc,2024-06-24 12:40:18.585210085,-42.0,-5.0,48.0
1904-01-01 00:13:56.581521085,E4_Acc,2024-06-24 12:40:18.616460085,-42.0,-5.0,48.0
1904-01-01 00:13:56.612781098,E4_Acc,2024-06-24 12:40:18.647720098,-41.0,-5.0,47.0
1904-01-01 00:13:56.644031098,E4_Acc,2024-06-24 12:40:18.678970098,-41.0,-5.0,47.0
1904-01-01 00:13:56.675281098,E4_Acc,2024-06-24 12:40:18.710220098,-42.0,-6.0,47.0
1904-01-01 00:13:56.706531098,E4_Acc,2024-06-24 12:40:18.741470098,-44.0,-7.0,48.0
1904-01-01 00:13:56.737781098,E4_Acc,2024-06-24 12:40:18.772720098,-44.0,-8.0,49.0
1904-01-01 00:13:56.769031098,E4_Acc,2024-06-24 12:40:18.803970098,-46.0,-9.0,50.0
1904-01-01 00:13:56.800281098,E4_Acc,2024-06-24 12:40:18.835220098,-45.0,-9.0,50.0
1904-01-01 00:13:56.831541112,E4_Acc,2024-06-24 12:40:18.866480112,-44.0,-7.0,48.0
1904-01-01 00:13:56.862791112,E4_Acc,2024-06-24 12:40:18.897730112,-43.0,-7.0,47.0
1904-01-01 00:13:56.894041112,E4_Acc,2024-06-24 12:40:18.928980112,-43.0,-6.0,47.0
1904-01-01 00:13:56.925291112,E4_Acc,2024-06-24 12:40:18.960230112,-43.0,-4.0,50.0
1904-01-01 00:13:56.956541112,E4_Acc,2024-06-24 12:40:18.991480112,-41.0,-3.0,51.0
1904-01-01 00:13:56.987791112,E4_Acc,2024-06-24 12:40:19.022730112,-41.0,-3.0,48.0
1904-01-01 00:13:57.019050887,E4_Acc,2024-06-24 12:40:19.053989887,-42.0,-2.0,47.0
1904-01-01 00:13:57.050300887,E4_Acc,2024-06-24 12:40:19.085239887,-41.0,-1.0,47.0
1904-01-01 00:13:57.081550887,E4_Acc,2024-06-24 12:40:19.116489887,-38.0,-1.0,45.0
1904-01-01 00:13:57.112800887,E4_Acc,2024-06-24 12:40:19.147739887,-42.0,0.0,47.0
1904-01-01 00:13:57.144050887,E4_Acc,2024-06-24 12:40:19.178989887,-41.0,2.0,51.0
1904-01-01 00:13:57.175300887,E4_Acc,2024-06-24 12:40:19.210239887,-40.0,0.0,50.0
1904-01-01 00:13:57.206550887,E4_Acc,2024-06-24 12:40:19.241489887,-39.0,-4.0,48.0
1904-01-01 00:13:57.237810901,E4_Acc,2024-06-24 12:40:19.272749901,-42.0,-6.0,48.0
1904-01-01 00:13:57.269060901,E4_Acc,2024-06-24 12:40:19.303999901,-40.0,-4.0,51.0
1904-01-01 00:13:57.300310901,E4_Acc,2024-06-24 12:40:19.335249901,-25.0,2.0,55.0
1904-01-01 00:13:57.331560901,E4_Acc,2024-06-24 12:40:19.366499901,-40.0,0.0,52.0
1904-01-01 00:13:57.362810901,E4_Acc,2024-06-24 12:40:19.397749901,-49.0,-2.0,50.0
1904-01-01 00:13:57.394060901,E4_Acc,2024-06-24 12:40:19.428999901,-58.0,-5.0,45.0
1904-01-01 00:13:57.425310901,E4_Acc,2024-06-24 12:40:19.460249901,-51.0,-2.0,41.0
1904-01-01 00:13:57.456570914,E4_Acc,2024-06-24 12:40:19.491509914,-45.0,-1.0,41.0
1904-01-01 00:13:57.487820914,E4_Acc,2024-06-24 12:40:19.522759914,-41.0,3.0,44.0
1904-01-01 00:13:57.519070914,E4_Acc,2024-06-24 12:40:19.554009914,-46.0,4.0,45.0
1904-01-01 00:13:57.550320914,E4_Acc,2024-06-24 12:40:19.585259914,-42.0,4.0,52.0
1904-01-01 00:13:57.581570914,E4_Acc,2024-06-24 12:40:19.616509914,-43.0,4.0,54.0
1904-01-01 00:13:57.612820914,E4_Acc,2024-06-24 12:40:19.647759914,-43.0,3.0,51.0
1904-01-01 00:13:57.644070914,E4_Acc,2024-06-24 12:40:19.679009914,-43.0,4.0,46.0
1904-01-01 00:13:57.675330928,E4_Acc,2024-06-24 12:40:19.710269928,-44.0,7.0,47.0
1904-01-01 00:13:57.706580928,E4_Acc,2024-06-24 12:40:19.741519928,-41.0,8.0,49.0
1904-01-01 00:13:57.737830928,E4_Acc,2024-06-24 12:40:19.772769928,-37.0,7.0,49.0
1904-01-01 00:13:57.769080928,E4_Acc,2024-06-24 12:40:19.804019928,-38.0,7.0,47.0
1904-01-01 00:13:57.800330928,E4_Acc,2024-06-24 12:40:19.835269928,-42.0,6.0,48.0
1904-01-01 00:13:57.831580928,E4_Acc,2024-06-24 12:40:19.866519928,-41.0,5.0,48.0
1904-01-01 00:13:57.862830928,E4_Acc,2024-06-24 12:40:19.897769928,-40.0,7.0,50.0
1904-01-01 00:13:57.894090942,E4_Acc,2024-06-24 12:40:19.929029942,-40.0,7.0,47.0
1904-01-01 00:13:57.925340942,E4_Acc,2024-06-24 12:40:19.960279942,-42.0,8.0,43.0
1904-01-01 00:13:57.956590942,E4_Acc,2024-06-24 12:40:19.991529942,-44.0,11.0,40.0
1904-01-01 00:13:57.987840942,E4_Acc,2024-06-24 12:40:20.022779942,-41.0,15.0,41.0
1904-01-01 00:13:58.019090942,E4_Acc,2024-06-24 12:40:20.054029942,-32.0,13.0,47.0
1904-01-01 00:13:58.050340942,E4_Acc,2024-06-24 12:40:20.085279942,-39.0,11.0,49.0
1904-01-01 00:13:58.081590942,E4_Acc,2024-06-24 12:40:20.116529942,-38.0,9.0,55.0
1904-01-01 00:13:58.112850955,E4_Acc,2024-06-24 12:40:20.147789955,-30.0,8.0,53.0
1904-01-01 00:13:58.144100955,E4_Acc,2024-06-24 12:40:20.179039955,-31.0,8.0,44.0
1904-01-01 00:13:58.175350955,E4_Acc,2024-06-24 12:40:20.210289955,-28.0,13.0,45.0
1904-01-01 00:13:58.206600955,E4_Acc,2024-06-24 12:40:20.241539955,-34.0,12.0,52.0
1904-01-01 00:13:58.237850955,E4_Acc,2024-06-24 12:40:20.272789955,-37.0,13.0,51.0
1904-01-01 00:13:58.269100955,E4_Acc,2024-06-24 12:40:20.304039955,-40.0,8.0,53.0
1904-01-01 00:13:58.300350955,E4_Acc,2024-06-24 12:40:20.335289955,-39.0,7.0,49.0
1904-01-01 00:13:58.331610969,E4_Acc,2024-06-24 12:40:20.366549969,-37.0,6.0,57.0
1904-01-01 00:13:58.362860969,E4_Acc,2024-06-24 12:40:20.397799969,-39.0,4.0,60.0
1904-01-01 00:13:58.394110969,E4_Acc,2024-06-24 12:40:20.429049969,-39.0,0.0,62.0
1904-01-01 00:13:58.425360969,E4_Acc,2024-06-24 12:40:20.460299969,-37.0,-3.0,56.0
1904-01-01 00:13:58.456610969,E4_Acc,2024-06-24 12:40:20.491549969,-36.0,-2.0,57.0
1904-01-01 00:13:58.487860969,E4_Acc,2024-06-24 12:40:20.522799969,-36.0,-1.0,56.0
1904-01-01 00:13:58.519110969,E4_Acc,2024-06-24 12:40:20.554049969,-34.0,0.0,52.0
1904-01-01 00:13:58.550370982,E4_Acc,2024-06-24 12:40:20.585309982,-35.0,1.0,52.0
1904-01-01 00:13:58.581620982,E4_Acc,2024-06-24 12:40:20.616559982,-36.0,1.0,56.0
1904-01-01 00:13:58.612870982,E4_Acc,2024-06-24 12:40:20.647809982,-35.0,1.0,54.0
1904-01-01 00:13:58.644120982,E4_Acc,2024-06-24 12:40:20.679059982,-34.0,4.0,53.0
1904-01-01 00:13:58.675370982,E4_Acc,2024-06-24 12:40:20.710309982,-32.0,5.0,53.0
1904-01-01 00:13:58.706620982,E4_Acc,2024-06-24 12:40:20.741559982,-33.0,4.0,53.0
1904-01-01 00:13:58.737870982,E4_Acc,2024-06-24 12:40:20.772809982,-40.0,-2.0,61.0
1904-01-01 00:13:58.769130996,E4_Acc,2024-06-24 12:40:20.804069996,-38.0,-1.0,59.0
1904-01-01 00:13:58.800380996,E4_Acc,2024-06-24 12:40:20.835319996,-37.0,-3.0,57.0
1904-01-01 00:13:58.831630996,E4_Acc,2024-06-24 12:40:20.866569996,-37.0,-3.0,58.0
1904-01-01 00:13:58.862880996,E4_Acc,2024-06-24 12:40:20.897819996,-36.0,-1.0,57.0
1904-01-01 00:13:58.894130996,E4_Acc,2024-06-24 12:40:20.929069996,-34.0,-2.0,56.0
1904-01-01 00:13:58.925380996,E4_Acc,2024-06-24 12:40:20.960319996,-35.0,-2.0,54.0
1904-01-01 00:13:58.956630996,E4_Acc,2024-06-24 12:40:20.991569996,-36.0,-2.0,54.0
1904-01-01 00:13:58.987891009,E4_Acc,2024-06-24 12:40:21.022830009,-38.0,2.0,51.0
1904-01-01 00:13:59.019141009,E4_Acc,2024-06-24 12:40:21.054080009,-37.0,5.0,49.0
1904-01-01 00:13:59.050391009,E4_Acc,2024-06-24 12:40:21.085330009,-35.0,5.0,50.0
1904-01-01 00:13:59.081641009,E4_Acc,2024-06-24 12:40:21.116580009,-37.0,3.0,51.0
1904-01-01 00:13:59.112891009,E4_Acc,2024-06-24 12:40:21.147830009,-37.0,3.0,51.0
1904-01-01 00:13:59.144141009,E4_Acc,2024-06-24 12:40:21.179080009,-38.0,3.0,52.0
1904-01-01 00:13:59.175401023,E4_Acc,2024-06-24 12:40:21.210340023,-39.0,3.0,52.0
1904-01-01 00:13:59.206651023,E4_Acc,2024-06-24 12:40:21.241590023,-43.0,4.0,54.0
1904-01-01 00:13:59.237901023,E4_Acc,2024-06-24 12:40:21.272840023,-40.0,5.0,55.0
1904-01-01 00:13:59.269151023,E4_Acc,2024-06-24 12:40:21.304090023,-37.0,6.0,54.0
1904-01-01 00:13:59.300401023,E4_Acc,2024-06-24 12:40:21.335340023,-41.0,5.0,45.0
1904-01-01 00:13:59.331651023,E4_Acc,2024-06-24 12:40:21.366590023,-40.0,5.0,45.0
1904-01-01 00:13:59.362901023,E4_Acc,2024-06-24 12:40:21.397840023,-36.0,8.0,47.0
1904-01-01 00:13:59.394161037,E4_Acc,2024-06-24 12:40:21.429100037,-32.0,9.0,45.0
1904-01-01 00:13:59.425411037,E4_Acc,2024-06-24 12:40:21.460350037,-34.0,8.0,45.0
1904-01-01 00:13:59.456661037,E4_Acc,2024-06-24 12:40:21.491600037,-38.0,4.0,58.0
1904-01-01 00:13:59.487911037,E4_Acc,2024-06-24 12:40:21.522850037,-35.0,2.0,67.0
1904-01-01 00:13:59.519161037,E4_Acc,2024-06-24 12:40:21.554100037,-34.0,2.0,67.0
1904-01-01 00:13:59.550411037,E4_Acc,2024-06-24 12:40:21.585350037,-26.0,4.0,56.0
1904-01-01 00:13:59.581661037,E4_Acc,2024-06-24 12:40:21.616600037,-28.0,2.0,48.0
1904-01-01 00:13:59.612921050,E4_Acc,2024-06-24 12:40:21.647860050,-38.0,1.0,37.0
1904-01-01 00:13:59.644171050,E4_Acc,2024-06-24 12:40:21.679110050,-42.0,3.0,36.0
1904-01-01 00:13:59.675421050,E4_Acc,2024-06-24 12:40:21.710360050,-39.0,7.0,48.0
1904-01-01 00:13:59.706671050,E4_Acc,2024-06-24 12:40:21.741610050,-49.0,2.0,44.0
1904-01-01 00:13:59.737921050,E4_Acc,2024-06-24 12:40:21.772860050,-49.0,3.0,45.0
1904-01-01 00:13:59.769171050,E4_Acc,2024-06-24 12:40:21.804110050,-47.0,1.0,49.0
1904-01-01 00:13:59.800421050,E4_Acc,2024-06-24 12:40:21.835360050,-46.0,1.0,48.0
1904-01-01 00:13:59.831681064,E4_Acc,2024-06-24 12:40:21.866620064,-47.0,0.0,48.0
1904-01-01 00:13:59.862931064,E4_Acc,2024-06-24 12:40:21.897870064,-42.0,-1.0,49.0
1904-01-01 00:13:59.894181064,E4_Acc,2024-06-24 12:40:21.929120064,-37.0,-1.0,51.0
1904-01-01 00:13:59.925431064,E4_Acc,2024-06-24 12:40:21.960370064,-44.0,0.0,45.0
1904-01-01 00:13:59.956681064,E4_Acc,2024-06-24 12:40:21.991620064,-46.0,4.0,43.0
1904-01-01 00:13:59.987931064,E4_Acc,2024-06-24 12:40:22.022870064,-40.0,6.0,44.0
1904-01-01 00:14:00.019181064,E4_Acc,2024-06-24 12:40:22.054120064,-37.0,8.0,45.0
1904-01-01 00:14:00.050441077,E4_Acc,2024-06-24 12:40:22.085380077,-41.0,7.0,47.0
1904-01-01 00:14:00.081691077,E4_Acc,2024-06-24 12:40:22.116630077,-41.0,7.0,47.0
1904-01-01 00:14:00.112941077,E4_Acc,2024-06-24 12:40:22.147880077,-39.0,5.0,45.0
1904-01-01 00:14:00.144191077,E4_Acc,2024-06-24 12:40:22.179130077,-44.0,2.0,46.0
1904-01-01 00:14:00.175441077,E4_Acc,2024-06-24 12:40:22.210380077,-43.0,1.0,52.0
1904-01-01 00:14:00.206691077,E4_Acc,2024-06-24 12:40:22.241630077,-41.0,-1.0,54.0
1904-01-01 00:14:00.237941077,E4_Acc,2024-06-24 12:40:22.272880077,-44.0,-4.0,52.0
1904-01-01 00:14:00.269201091,E4_Acc,2024-06-24 12:40:22.304140091,-41.0,-3.0,52.0
1904-01-01 00:14:00.300451091,E4_Acc,2024-06-24 12:40:22.335390091,-40.0,-2.0,53.0
1904-01-01 00:14:00.331701091,E4_Acc,2024-06-24 12:40:22.366640091,-40.0,-1.0,51.0
1904-01-01 00:14:00.362951091,E4_Acc,2024-06-24 12:40:22.397890091,-40.0,0.0,50.0
1904-01-01 00:14:00.394201091,E4_Acc,2024-06-24 12:40:22.429140091,-40.0,1.0,50.0
1904-01-01 00:14:00.425451091,E4_Acc,2024-06-24 12:40:22.460390091,-41.0,1.0,50.0
1904-01-01 00:14:00.456701091,E4_Acc,2024-06-24 12:40:22.491640091,-41.0,1.0,50.0
1904-01-01 00:14:00.487961104,E4_Acc,2024-06-24 12:40:22.522900104,-40.0,0.0,49.0
1904-01-01 00:14:00.519211105,E4_Acc,2024-06-24 12:40:22.554150105,-40.0,0.0,49.0
1904-01-01 00:14:00.550461105,E4_Acc,2024-06-24 12:40:22.585400105,-41.0,-1.0,48.0
1904-01-01 00:14:00.581711105,E4_Acc,2024-06-24 12:40:22.616650105,-41.0,-2.0,50.0
1904-01-01 00:14:00.612961105,E4_Acc,2024-06-24 12:40:22.647900105,-42.0,-2.0,50.0
1904-01-01 00:14:00.644211105,E4_Acc,2024-06-24 12:40:22.679150105,-41.0,-2.0,51.0
1904-01-01 00:14:00.675461105,E4_Acc,2024-06-24 12:40:22.710400105,-41.0,-2.0,51.0
1904-01-01 00:14:00.706721118,E4_Acc,2024-06-24 12:40:22.741660118,-40.0,-1.0,49.0
1904-01-01 00:14:00.737971118,E4_Acc,2024-06-24 12:40:22.772910118,-40.0,-1.0,48.0
1904-01-01 00:14:00.769221118,E4_Acc,2024-06-24 12:40:22.804160118,-40.0,-1.0,49.0
1904-01-01 00:14:00.800471118,E4_Acc,2024-06-24 12:40:22.835410118,-42.0,-3.0,52.0
1904-01-01 00:14:00.831721118,E4_Acc,2024-06-24 12:40:22.866660118,-42.0,-1.0,51.0
1904-01-01 00:14:00.862971118,E4_Acc,2024-06-24 12:40:22.897910118,-40.0,-1.0,49.0
1904-01-01 00:14:00.894221118,E4_Acc,2024-06-24 12:40:22.929160118,-40.0,-1.0,49.0
1904-01-01 00:14:00.925480893,E4_Acc,2024-06-24 12:40:22.960419893,-41.0,-1.0,49.0
1904-01-01 00:14:00.956730893,E4_Acc,2024-06-24 12:40:22.991669893,-40.0,-1.0,51.0
1904-01-01 00:14:00.987980893,E4_Acc,2024-06-24 12:40:23.022919893,-40.0,-2.0,50.0
1904-01-01 00:14:01.019230893,E4_Acc,2024-06-24 12:40:23.054169893,-41.0,-2.0,49.0
1904-01-01 00:14:01.050480893,E4_Acc,2024-06-24 12:40:23.085419893,-40.0,-2.0,50.0
1904-01-01 00:14:01.081730893,E4_Acc,2024-06-24 12:40:23.116669893,-41.0,-2.0,50.0
1904-01-01 00:14:01.112980893,E4_Acc,2024-06-24 12:40:23.147919893,-42.0,-2.0,50.0
1904-01-01 00:14:01.144240907,E4_Acc,2024-06-24 12:40:23.179179907,-40.0,-2.0,49.0
1904-01-01 00:14:01.175490907,E4_Acc,2024-06-24 12:40:23.210429907,-40.0,-2.0,49.0
1904-01-01 00:14:01.206740907,E4_Acc,2024-06-24 12:40:23.241679907,-41.0,-1.0,50.0
1904-01-01 00:14:01.237990907,E4_Acc,2024-06-24 12:40:23.272929907,-40.0,-1.0,49.0
1904-01-01 00:14:01.269240907,E4_Acc,2024-06-24 12:40:23.304179907,-41.0,-1.0,49.0
1904-01-01 00:14:01.300490907,E4_Acc,2024-06-24 12:40:23.335429907,-41.0,-2.0,49.0
1904-01-01 00:14:01.331740907,E4_Acc,2024-06-24 12:40:23.366679907,-41.0,-1.0,50.0
1904-01-01 00:14:01.363000920,E4_Acc,2024-06-24 12:40:23.397939920,-41.0,-1.0,49.0
1904-01-01 00:14:01.394250920,E4_Acc,2024-06-24 12:40:23.429189920,-40.0,-2.0,49.0
1904-01-01 00:14:01.425500920,E4_Acc,2024-06-24 12:40:23.460439920,-41.0,-1.0,49.0
1904-01-01 00:14:01.456750920,E4_Acc,2024-06-24 12:40:23.491689920,-41.0,-1.0,50.0
1904-01-01 00:14:01.488000920,E4_Acc,2024-06-24 12:40:23.522939920,-41.0,-1.0,50.0
1904-01-01 00:14:01.519250920,E4_Acc,2024-06-24 12:40:23.554189920,-41.0,-1.0,50.0
1904-01-01 00:14:01.550500920,E4_Acc,2024-06-24 12:40:23.585439920,-41.0,-1.0,50.0
1904-01-01 00:14:01.581760934,E4_Acc,2024-06-24 12:40:23.616699934,-41.0,-1.0,50.0
1904-01-01 00:14:01.613010934,E4_Acc,2024-06-24 12:40:23.647949934,-41.0,-2.0,51.0
1904-01-01 00:14:01.644260934,E4_Acc,2024-06-24 12:40:23.679199934,-41.0,-3.0,52.0
1904-01-01 00:14:01.675510934,E4_Acc,2024-06-24 12:40:23.710449934,-44.0,-3.0,53.0
1904-01-01 00:14:01.706760934,E4_Acc,2024-06-24 12:40:23.741699934,-44.0,-2.0,52.0
1904-01-01 00:14:01.738010934,E4_Acc,2024-06-24 12:40:23.772949934,-41.0,0.0,50.0
1904-01-01 00:14:01.769260934,E4_Acc,2024-06-24 12:40:23.804199934,-39.0,1.0,46.0
1904-01-01 00:14:01.800520948,E4_Acc,2024-06-24 12:40:23.835459948,-39.0,1.0,46.0
1904-01-01 00:14:01.831770948,E4_Acc,2024-06-24 12:40:23.866709948,-39.0,3.0,46.0
1904-01-01 00:14:01.863020948,E4_Acc,2024-06-24 12:40:23.897959948,-39.0,2.0,47.0
1904-01-01 00:14:01.894270948,E4_Acc,2024-06-24 12:40:23.929209948,-41.0,1.0,48.0
1904-01-01 00:14:01.925520948,E4_Acc,2024-06-24 12:40:23.960459948,-45.0,1.0,50.0
1904-01-01 00:14:01.956770948,E4_Acc,2024-06-24 12:40:23.991709948,-47.0,1.0,49.0
1904-01-01 00:14:01.988030961,E4_Acc,2024-06-24 12:40:24.022969961,-46.0,3.0,49.0
1904-01-01 00:14:02.019280961,E4_Acc,2024-06-24 12:40:24.054219961,-43.0,3.0,46.0
1904-01-01 00:14:02.050530961,E4_Acc,2024-06-24 12:40:24.085469961,-41.0,4.0,46.0
1904-01-01 00:14:02.081780961,E4_Acc,2024-06-24 12:40:24.116719961,-42.0,3.0,45.0
1904-01-01 00:14:02.113030961,E4_Acc,2024-06-24 12:40:24.147969961,-38.0,1.0,47.0
1904-01-01 00:14:02.144280961,E4_Acc,2024-06-24 12:40:24.179219961,-38.0,-2.0,49.0
1904-01-01 00:14:02.175530961,E4_Acc,2024-06-24 12:40:24.210469961,-38.0,-2.0,50.0
1904-01-01 00:14:02.206790975,E4_Acc,2024-06-24 12:40:24.241729975,-39.0,-1.0,51.0
1904-01-01 00:14:02.238040975,E4_Acc,2024-06-24 12:40:24.272979975,-42.0,1.0,48.0
1904-01-01 00:14:02.269290975,E4_Acc,2024-06-24 12:40:24.304229975,-42.0,2.0,47.0
1904-01-01 00:14:02.300540975,E4_Acc,2024-06-24 12:40:24.335479975,-45.0,3.0,46.0
1904-01-01 00:14:02.331790975,E4_Acc,2024-06-24 12:40:24.366729975,-47.0,1.0,47.0
1904-01-01 00:14:02.363040975,E4_Acc,2024-06-24 12:40:24.397979975,-46.0,0.0,48.0
1904-01-01 00:14:02.394290975,E4_Acc,2024-06-24 12:40:24.429229975,-48.0,0.0,48.0
1904-01-01 00:14:02.425550988,E4_Acc,2024-06-24 12:40:24.460489988,-44.0,0.0,48.0
1904-01-01 00:14:02.456800988,E4_Acc,2024-06-24 12:40:24.491739988,-43.0,0.0,47.0
1904-01-01 00:14:02.488050987,E4_Acc,2024-06-24 12:40:24.522989987,-42.0,0.0,47.0
1904-01-01 00:14:02.519300988,E4_Acc,2024-06-24 12:40:24.554239988,-41.0,0.0,47.0
1904-01-01 00:14:02.550550988,E4_Acc,2024-06-24 12:40:24.585489988,-41.0,1.0,47.0
1904-01-01 00:14:02.581800988,E4_Acc,2024-06-24 12:40:24.616739988,-41.0,1.0,47.0
1904-01-01 00:14:02.613050988,E4_Acc,2024-06-24 12:40:24.647989988,-42.0,0.0,48.0
1904-01-01 00:14:02.644311002,E4_Acc,2024-06-24 12:40:24.679250002,-45.0,0.0,51.0
1904-01-01 00:14:02.675561002,E4_Acc,2024-06-24 12:40:24.710500002,-44.0,1.0,51.0
1904-01-01 00:14:02.706811002,E4_Acc,2024-06-24 12:40:24.741750002,-41.0,1.0,47.0
1904-01-01 00:14:02.738061002,E4_Acc,2024-06-24 12:40:24.773000002,-42.0,0.0,47.0
1904-01-01 00:14:02.769311002,E4_Acc,2024-06-24 12:40:24.804250002,-43.0,0.0,48.0
1904-01-01 00:14:02.800561002,E4_Acc,2024-06-24 12:40:24.835500002,-43.0,0.0,49.0
1904-01-01 00:14:02.831811002,E4_Acc,2024-06-24 12:40:24.866750002,-43.0,0.0,49.0
1904-01-01 00:14:02.863071015,E4_Acc,2024-06-24 12:40:24.898010015,-42.0,0.0,48.0
1904-01-01 00:14:02.894321015,E4_Acc,2024-06-24 12:40:24.929260015,-43.0,0.0,48.0
1904-01-01 00:14:02.925571015,E4_Acc,2024-06-24 12:40:24.960510015,-43.0,0.0,48.0
1904-01-01 00:14:02.956821015,E4_Acc,2024-06-24 12:40:24.991760015,-42.0,0.0,47.0
1904-01-01 00:14:02.988071015,E4_Acc,2024-06-24 12:40:25.023010015,-42.0,0.0,48.0
1904-01-01 00:14:03.019321015,E4_Acc,2024-06-24 12:40:25.054260015,-42.0,0.0,48.0
1904-01-01 00:14:03.050571015,E4_Acc,2024-06-24 12:40:25.085510015,-42.0,-1.0,48.0
1904-01-01 00:14:03.081831029,E4_Acc,2024-06-24 12:40:25.116770029,-42.0,0.0,48.0
1904-01-01 00:14:03.113081029,E4_Acc,2024-06-24 12:40:25.148020029,-43.0,0.0,48.0
1904-01-01 00:14:03.144331029,E4_Acc,2024-06-24 12:40:25.179270029,-43.0,0.0,49.0
1904-01-01 00:14:03.175581029,E4_Acc,2024-06-24 12:40:25.210520029,-43.0,-1.0,49.0
1904-01-01 00:14:03.206831029,E4_Acc,2024-06-24 12:40:25.241770029,-44.0,-4.0,53.0
1904-01-01 00:14:03.238081029,E4_Acc,2024-06-24 12:40:25.273020029,-46.0,-4.0,54.0
1904-01-01 00:14:03.269331029,E4_Acc,2024-06-24 12:40:25.304270029,-43.0,-1.0,50.0
1904-01-01 00:14:03.300591043,E4_Acc,2024-06-24 12:40:25.335530043,-41.0,-1.0,49.0
1904-01-01 00:14:03.331841043,E4_Acc,2024-06-24 12:40:25.366780043,-40.0,0.0,46.0
1904-01-01 00:14:03.363091043,E4_Acc,2024-06-24 12:40:25.398030043,-41.0,1.0,44.0
1904-01-01 00:14:03.394341043,E4_Acc,2024-06-24 12:40:25.429280043,-41.0,2.0,44.0
1904-01-01 00:14:03.425591043,E4_Acc,2024-06-24 12:40:25.460530043,-42.0,5.0,42.0
1904-01-01 00:14:03.456841043,E4_Acc,2024-06-24 12:40:25.491780043,-41.0,6.0,42.0
1904-01-01 00:14:03.488091043,E4_Acc,2024-06-24 12:40:25.523030043,-42.0,6.0,43.0
1904-01-01 00:14:03.519351056,E4_Acc,2024-06-24 12:40:25.554290056,-44.0,2.0,48.0
1904-01-01 00:14:03.550601056,E4_Acc,2024-06-24 12:40:25.585540056,-44.0,0.0,49.0
1904-01-01 00:14:03.581851056,E4_Acc,2024-06-24 12:40:25.616790056,-44.0,-3.0,50.0
1904-01-01 00:14:03.613101056,E4_Acc,2024-06-24 12:40:25.648040056,-44.0,-3.0,50.0
1904-01-01 00:14:03.644351056,E4_Acc,2024-06-24 12:40:25.679290056,-43.0,-3.0,49.0
1904-01-01 00:14:03.675601056,E4_Acc,2024-06-24 12:40:25.710540056,-44.0,-2.0,49.0
1904-01-01 00:14:03.706851056,E4_Acc,2024-06-24 12:40:25.741790056,-43.0,-2.0,50.0
1904-01-01 00:14:03.738111070,E4_Acc,2024-06-24 12:40:25.773050070,-45.0,-3.0,51.0
1904-01-01 00:14:03.769361070,E4_Acc,2024-06-24 12:40:25.804300070,-45.0,-3.0,51.0
1904-01-01 00:14:03.800611070,E4_Acc,2024-06-24 12:40:25.835550070,-45.0,-2.0,49.0
1904-01-01 00:14:03.831861070,E4_Acc,2024-06-24 12:40:25.866800070,-46.0,-2.0,50.0
1904-01-01 00:14:03.863111070,E4_Acc,2024-06-24 12:40:25.898050070,-46.0,-1.0,48.0
1904-01-01 00:14:03.894361070,E4_Acc,2024-06-24 12:40:25.929300070,-48.0,1.0,41.0
1904-01-01 00:14:03.925611070,E4_Acc,2024-06-24 12:40:25.960550070,-50.0,2.0,37.0
1904-01-01 00:14:03.956871083,E4_Acc,2024-06-24 12:40:25.991810083,-46.0,2.0,37.0
1904-01-01 00:14:03.988121083,E4_Acc,2024-06-24 12:40:26.023060083,-39.0,5.0,42.0
1904-01-01 00:14:04.019371083,E4_Acc,2024-06-24 12:40:26.054310083,-40.0,4.0,43.0
1904-01-01 00:14:04.050621083,E4_Acc,2024-06-24 12:40:26.085560083,-46.0,4.0,40.0
1904-01-01 00:14:04.081871083,E4_Acc,2024-06-24 12:40:26.116810083,-50.0,1.0,47.0
1904-01-01 00:14:04.113121083,E4_Acc,2024-06-24 12:40:26.148060083,-49.0,0.0,48.0
1904-01-01 00:14:04.144371083,E4_Acc,2024-06-24 12:40:26.179310083,-49.0,0.0,45.0
1904-01-01 00:14:04.175631097,E4_Acc,2024-06-24 12:40:26.210570097,-48.0,1.0,44.0
1904-01-01 00:14:04.206881097,E4_Acc,2024-06-24 12:40:26.241820097,-46.0,1.0,43.0
1904-01-01 00:14:04.238131097,E4_Acc,2024-06-24 12:40:26.273070097,-48.0,1.0,43.0
1904-01-01 00:14:04.269381097,E4_Acc,2024-06-24 12:40:26.304320097,-48.0,1.0,44.0
1904-01-01 00:14:04.300631097,E4_Acc,2024-06-24 12:40:26.335570097,-47.0,2.0,43.0
1904-01-01 00:14:04.331881097,E4_Acc,2024-06-24 12:40:26.366820097,-52.0,1.0,42.0
1904-01-01 00:14:04.363141111,E4_Acc,2024-06-24 12:40:26.398080111,-52.0,1.0,42.0
1904-01-01 00:14:04.394391111,E4_Acc,2024-06-24 12:40:26.429330111,-49.0,1.0,42.0
1904-01-01 00:14:04.425641111,E4_Acc,2024-06-24 12:40:26.460580111,-50.0,1.0,42.0
1904-01-01 00:14:04.456891111,E4_Acc,2024-06-24 12:40:26.491830111,-49.0,1.0,42.0
1904-01-01 00:14:04.488141110,E4_Acc,2024-06-24 12:40:26.523080110,-49.0,1.0,41.0
1904-01-01 00:14:04.519391111,E4_Acc,2024-06-24 12:40:26.554330111,-47.0,3.0,41.0
1904-01-01 00:14:04.550641111,E4_Acc,2024-06-24 12:40:26.585580111,-48.0,3.0,42.0
1904-01-01 00:14:04.581900886,E4_Acc,2024-06-24 12:40:26.616839886,-47.0,3.0,42.0
1904-01-01 00:14:04.613150886,E4_Acc,2024-06-24 12:40:26.648089886,-48.0,4.0,42.0
1904-01-01 00:14:04.644400886,E4_Acc,2024-06-24 12:40:26.679339886,-48.0,4.0,42.0
1904-01-01 00:14:04.675650886,E4_Acc,2024-06-24 12:40:26.710589886,-47.0,3.0,43.0
1904-01-01 00:14:04.706900886,E4_Acc,2024-06-24 12:40:26.741839886,-47.0,3.0,41.0
1904-01-01 00:14:04.738150886,E4_Acc,2024-06-24 12:40:26.773089886,-46.0,4.0,41.0
1904-01-01 00:14:04.769400886,E4_Acc,2024-06-24 12:40:26.804339886,-45.0,4.0,39.0
1904-01-01 00:14:04.800660899,E4_Acc,2024-06-24 12:40:26.835599899,-43.0,4.0,40.0
1904-01-01 00:14:04.831910899,E4_Acc,2024-06-24 12:40:26.866849899,-48.0,1.0,44.0
1904-01-01 00:14:04.863160899,E4_Acc,2024-06-24 12:40:26.898099899,-57.0,0.0,47.0
1904-01-01 00:14:04.894410899,E4_Acc,2024-06-24 12:40:26.929349899,-56.0,0.0,46.0
1904-01-01 00:14:04.925660899,E4_Acc,2024-06-24 12:40:26.960599899,-47.0,3.0,51.0
1904-01-01 00:14:04.956910899,E4_Acc,2024-06-24 12:40:26.991849899,-47.0,5.0,48.0
1904-01-01 00:14:04.988160899,E4_Acc,2024-06-24 12:40:27.023099899,-56.0,6.0,34.0
1904-01-01 00:14:05.019420913,E4_Acc,2024-06-24 12:40:27.054359913,-43.0,11.0,41.0
1904-01-01 00:14:05.050670913,E4_Acc,2024-06-24 12:40:27.085609913,-35.0,11.0,44.0
1904-01-01 00:14:05.081920913,E4_Acc,2024-06-24 12:40:27.116859913,-35.0,10.0,34.0
1904-01-01 00:14:05.113170913,E4_Acc,2024-06-24 12:40:27.148109913,-27.0,15.0,54.0
1904-01-01 00:14:05.144420913,E4_Acc,2024-06-24 12:40:27.179359913,-31.0,14.0,49.0
1904-01-01 00:14:05.175670913,E4_Acc,2024-06-24 12:40:27.210609913,-33.0,2.0,52.0
1904-01-01 00:14:05.206920913,E4_Acc,2024-06-24 12:40:27.241859913,-40.0,0.0,57.0
1904-01-01 00:14:05.238180926,E4_Acc,2024-06-24 12:40:27.273119926,-36.0,2.0,58.0
1904-01-01 00:14:05.269430926,E4_Acc,2024-06-24 12:40:27.304369926,-37.0,1.0,56.0
1904-01-01 00:14:05.300680926,E4_Acc,2024-06-24 12:40:27.335619926,-40.0,0.0,54.0
1904-01-01 00:14:05.331930926,E4_Acc,2024-06-24 12:40:27.366869926,-31.0,2.0,54.0
1904-01-01 00:14:05.363180926,E4_Acc,2024-06-24 12:40:27.398119926,-33.0,2.0,53.0
1904-01-01 00:14:05.394430926,E4_Acc,2024-06-24 12:40:27.429369926,-37.0,2.0,58.0
1904-01-01 00:14:05.425680926,E4_Acc,2024-06-24 12:40:27.460619926,-35.0,3.0,55.0
1904-01-01 00:14:05.456940940,E4_Acc,2024-06-24 12:40:27.491879940,-34.0,4.0,56.0
1904-01-01 00:14:05.488190940,E4_Acc,2024-06-24 12:40:27.523129940,-33.0,5.0,53.0
1904-01-01 00:14:05.519440940,E4_Acc,2024-06-24 12:40:27.554379940,-31.0,6.0,51.0
1904-01-01 00:14:05.550690940,E4_Acc,2024-06-24 12:40:27.585629940,-35.0,-1.0,58.0
1904-01-01 00:14:05.581940940,E4_Acc,2024-06-24 12:40:27.616879940,-42.0,-3.0,61.0
1904-01-01 00:14:05.613190940,E4_Acc,2024-06-24 12:40:27.648129940,-39.0,-3.0,57.0
1904-01-01 00:14:05.644440940,E4_Acc,2024-06-24 12:40:27.679379940,-36.0,-5.0,58.0
1904-01-01 00:14:05.675700954,E4_Acc,2024-06-24 12:40:27.710639954,-39.0,-3.0,59.0
1904-01-01 00:14:05.706950954,E4_Acc,2024-06-24 12:40:27.741889954,-35.0,0.0,57.0
1904-01-01 00:14:05.738200954,E4_Acc,2024-06-24 12:40:27.773139954,-36.0,4.0,52.0
1904-01-01 00:14:05.769450954,E4_Acc,2024-06-24 12:40:27.804389954,-36.0,6.0,51.0
1904-01-01 00:14:05.800700954,E4_Acc,2024-06-24 12:40:27.835639954,-35.0,10.0,51.0
1904-01-01 00:14:05.831950954,E4_Acc,2024-06-24 12:40:27.866889954,-37.0,10.0,51.0
1904-01-01 00:14:05.863200954,E4_Acc,2024-06-24 12:40:27.898139954,-39.0,9.0,53.0
1904-01-01 00:14:05.894460967,E4_Acc,2024-06-24 12:40:27.929399967,-37.0,9.0,55.0
1904-01-01 00:14:05.925710967,E4_Acc,2024-06-24 12:40:27.960649967,-33.0,10.0,58.0
1904-01-01 00:14:05.956960967,E4_Acc,2024-06-24 12:40:27.991899967,-32.0,10.0,55.0
1904-01-01 00:14:05.988210967,E4_Acc,2024-06-24 12:40:28.023149967,-37.0,8.0,48.0
1904-01-01 00:14:06.019460967,E4_Acc,2024-06-24 12:40:28.054399967,-37.0,9.0,43.0
1904-01-01 00:14:06.050710967,E4_Acc,2024-06-24 12:40:28.085649967,-29.0,11.0,45.0
1904-01-01 00:14:06.081960967,E4_Acc,2024-06-24 12:40:28.116899967,-31.0,13.0,48.0
1904-01-01 00:14:06.113220981,E4_Acc,2024-06-24 12:40:28.148159981,-36.0,13.0,54.0
1904-01-01 00:14:06.144470981,E4_Acc,2024-06-24 12:40:28.179409981,-41.0,12.0,49.0
1904-01-01 00:14:06.175720981,E4_Acc,2024-06-24 12:40:28.210659981,-41.0,11.0,47.0
1904-01-01 00:14:06.206970981,E4_Acc,2024-06-24 12:40:28.241909981,-39.0,9.0,51.0
1904-01-01 00:14:06.238220981,E4_Acc,2024-06-24 12:40:28.273159981,-40.0,8.0,51.0
1904-01-01 00:14:06.269470981,E4_Acc,2024-06-24 12:40:28.304409981,-39.0,6.0,46.0
1904-01-01 00:14:06.300720981,E4_Acc,2024-06-24 12:40:28.335659981,-37.0,5.0,50.0
1904-01-01 00:14:06.331980994,E4_Acc,2024-06-24 12:40:28.366919994,-40.0,5.0,53.0
1904-01-01 00:14:06.363230994,E4_Acc,2024-06-24 12:40:28.398169994,-39.0,6.0,52.0
1904-01-01 00:14:06.394480994,E4_Acc,2024-06-24 12:40:28.429419994,-40.0,6.0,50.0
1904-01-01 00:14:06.425730994,E4_Acc,2024-06-24 12:40:28.460669994,-40.0,6.0,52.0
1904-01-01 00:14:06.456980994,E4_Acc,2024-06-24 12:40:28.491919994,-40.0,8.0,50.0
1904-01-01 00:14:06.488230994,E4_Acc,2024-06-24 12:40:28.523169994,-39.0,8.0,51.0
1904-01-01 00:14:06.519491008,E4_Acc,2024-06-24 12:40:28.554430008,-41.0,9.0,50.0
1904-01-01 00:14:06.550741008,E4_Acc,2024-06-24 12:40:28.585680008,-41.0,9.0,49.0
1904-01-01 00:14:06.581991008,E4_Acc,2024-06-24 12:40:28.616930008,-39.0,9.0,49.0
1904-01-01 00:14:06.613241008,E4_Acc,2024-06-24 12:40:28.648180008,-39.0,9.0,50.0
1904-01-01 00:14:06.644491008,E4_Acc,2024-06-24 12:40:28.679430008,-40.0,9.0,51.0
1904-01-01 00:14:06.675741008,E4_Acc,2024-06-24 12:40:28.710680008,-41.0,10.0,50.0
1904-01-01 00:14:06.706991008,E4_Acc,2024-06-24 12:40:28.741930008,-43.0,9.0,49.0
1904-01-01 00:14:06.738251022,E4_Acc,2024-06-24 12:40:28.773190022,-40.0,9.0,50.0
1904-01-01 00:14:06.769501022,E4_Acc,2024-06-24 12:40:28.804440022,-39.0,9.0,49.0
1904-01-01 00:14:06.800751022,E4_Acc,2024-06-24 12:40:28.835690022,-40.0,10.0,49.0
1904-01-01 00:14:06.832001022,E4_Acc,2024-06-24 12:40:28.866940022,-40.0,9.0,49.0
1904-01-01 00:14:06.863251022,E4_Acc,2024-06-24 12:40:28.898190022,-40.0,10.0,49.0
1904-01-01 00:14:06.894501022,E4_Acc,2024-06-24 12:40:28.929440022,-40.0,10.0,48.0
1904-01-01 00:14:06.925751022,E4_Acc,2024-06-24 12:40:28.960690022,-39.0,10.0,48.0
1904-01-01 00:14:06.957011035,E4_Acc,2024-06-24 12:40:28.991950035,-39.0,11.0,48.0
1904-01-01 00:14:06.988261035,E4_Acc,2024-06-24 12:40:29.023200035,-41.0,11.0,49.0
1904-01-01 00:14:07.019511035,E4_Acc,2024-06-24 12:40:29.054450035,-40.0,11.0,50.0
1904-01-01 00:14:07.050761035,E4_Acc,2024-06-24 12:40:29.085700035,-40.0,11.0,51.0
1904-01-01 00:14:07.082011035,E4_Acc,2024-06-24 12:40:29.116950035,-43.0,10.0,53.0
1904-01-01 00:14:07.113261035,E4_Acc,2024-06-24 12:40:29.148200035,-45.0,9.0,53.0
1904-01-01 00:14:07.144511035,E4_Acc,2024-06-24 12:40:29.179450035,-42.0,12.0,47.0
1904-01-01 00:14:07.175771049,E4_Acc,2024-06-24 12:40:29.210710049,-35.0,9.0,33.0
1904-01-01 00:14:07.207021049,E4_Acc,2024-06-24 12:40:29.241960049,-21.0,12.0,38.0
1904-01-01 00:14:07.238271049,E4_Acc,2024-06-24 12:40:29.273210049,-33.0,10.0,51.0
1904-01-01 00:14:07.269521049,E4_Acc,2024-06-24 12:40:29.304460049,-44.0,6.0,56.0
1904-01-01 00:14:07.300771049,E4_Acc,2024-06-24 12:40:29.335710049,-50.0,4.0,49.0
1904-01-01 00:14:07.332021049,E4_Acc,2024-06-24 12:40:29.366960049,-57.0,7.0,52.0
1904-01-01 00:14:07.363271049,E4_Acc,2024-06-24 12:40:29.398210049,-51.0,10.0,52.0
1904-01-01 00:14:07.394531062,E4_Acc,2024-06-24 12:40:29.429470062,-45.0,9.0,45.0
1904-01-01 00:14:07.425781062,E4_Acc,2024-06-24 12:40:29.460720062,-45.0,8.0,41.0
1904-01-01 00:14:07.457031062,E4_Acc,2024-06-24 12:40:29.491970062,-43.0,9.0,42.0
1904-01-01 00:14:07.488281062,E4_Acc,2024-06-24 12:40:29.523220062,-41.0,10.0,46.0
1904-01-01 00:14:07.519531062,E4_Acc,2024-06-24 12:40:29.554470062,-42.0,8.0,45.0
1904-01-01 00:14:07.550781062,E4_Acc,2024-06-24 12:40:29.585720062,-43.0,9.0,39.0
1904-01-01 00:14:07.582031062,E4_Acc,2024-06-24 12:40:29.616970062,-44.0,8.0,38.0
1904-01-01 00:14:07.613291076,E4_Acc,2024-06-24 12:40:29.648230076,-57.0,6.0,41.0
1904-01-01 00:14:07.644541076,E4_Acc,2024-06-24 12:40:29.679480076,-46.0,5.0,48.0
1904-01-01 00:14:07.675791076,E4_Acc,2024-06-24 12:40:29.710730076,-40.0,1.0,50.0
1904-01-01 00:14:07.707041076,E4_Acc,2024-06-24 12:40:29.741980076,-48.0,-1.0,37.0
1904-01-01 00:14:07.738291076,E4_Acc,2024-06-24 12:40:29.773230076,-55.0,1.0,32.0
1904-01-01 00:14:07.769541076,E4_Acc,2024-06-24 12:40:29.804480076,-59.0,3.0,28.0
1904-01-01 00:14:07.800791076,E4_Acc,2024-06-24 12:40:29.835730076,-59.0,4.0,21.0
1904-01-01 00:14:07.832051089,E4_Acc,2024-06-24 12:40:29.866990089,-56.0,5.0,22.0
1904-01-01 00:14:07.863301089,E4_Acc,2024-06-24 12:40:29.898240089,-56.0,0.0,25.0
1904-01-01 00:14:07.894551089,E4_Acc,2024-06-24 12:40:29.929490089,-59.0,-2.0,25.0
1904-01-01 00:14:07.925801089,E4_Acc,2024-06-24 12:40:29.960740089,-63.0,3.0,29.0
1904-01-01 00:14:07.957051089,E4_Acc,2024-06-24 12:40:29.991990089,-66.0,5.0,23.0
1904-01-01 00:14:07.988301089,E4_Acc,2024-06-24 12:40:30.023240089,-65.0,5.0,23.0
1904-01-01 00:14:08.019551089,E4_Acc,2024-06-24 12:40:30.054490089,-60.0,3.0,26.0
1904-01-01 00:14:08.050811103,E4_Acc,2024-06-24 12:40:30.085750103,-55.0,1.0,28.0
1904-01-01 00:14:08.082061103,E4_Acc,2024-06-24 12:40:30.117000103,-56.0,0.0,28.0
1904-01-01 00:14:08.113311103,E4_Acc,2024-06-24 12:40:30.148250103,-57.0,-1.0,31.0
1904-01-01 00:14:08.144561103,E4_Acc,2024-06-24 12:40:30.179500103,-57.0,0.0,33.0
1904-01-01 00:14:08.175811103,E4_Acc,2024-06-24 12:40:30.210750103,-56.0,0.0,35.0
1904-01-01 00:14:08.207061103,E4_Acc,2024-06-24 12:40:30.242000103,-53.0,0.0,39.0
1904-01-01 00:14:08.238311103,E4_Acc,2024-06-24 12:40:30.273250103,-52.0,0.0,39.0
1904-01-01 00:14:08.269571117,E4_Acc,2024-06-24 12:40:30.304510117,-51.0,1.0,40.0
1904-01-01 00:14:08.300821117,E4_Acc,2024-06-24 12:40:30.335760117,-50.0,3.0,44.0
1904-01-01 00:14:08.332071117,E4_Acc,2024-06-24 12:40:30.367010117,-52.0,3.0,40.0
1904-01-01 00:14:08.363321117,E4_Acc,2024-06-24 12:40:30.398260117,-43.0,4.0,48.0
1904-01-01 00:14:08.394571117,E4_Acc,2024-06-24 12:40:30.429510117,-41.0,4.0,50.0
1904-01-01 00:14:08.425821117,E4_Acc,2024-06-24 12:40:30.460760117,-42.0,1.0,41.0
1904-01-01 00:14:08.457071117,E4_Acc,2024-06-24 12:40:30.492010117,-38.0,3.0,43.0
1904-01-01 00:14:08.488330891,E4_Acc,2024-06-24 12:40:30.523269891,-28.0,6.0,52.0
1904-01-01 00:14:08.519580892,E4_Acc,2024-06-24 12:40:30.554519892,-59.0,-7.0,42.0
1904-01-01 00:14:08.550830892,E4_Acc,2024-06-24 12:40:30.585769892,-67.0,-4.0,47.0
1904-01-01 00:14:08.582080892,E4_Acc,2024-06-24 12:40:30.617019892,-52.0,4.0,54.0
1904-01-01 00:14:08.613330892,E4_Acc,2024-06-24 12:40:30.648269892,-46.0,6.0,48.0
1904-01-01 00:14:08.644580892,E4_Acc,2024-06-24 12:40:30.679519892,-38.0,3.0,44.0
1904-01-01 00:14:08.675830892,E4_Acc,2024-06-24 12:40:30.710769892,-31.0,5.0,44.0
1904-01-01 00:14:08.707090905,E4_Acc,2024-06-24 12:40:30.742029905,-32.0,3.0,41.0
1904-01-01 00:14:08.738340905,E4_Acc,2024-06-24 12:40:30.773279905,-44.0,3.0,48.0
1904-01-01 00:14:08.769590905,E4_Acc,2024-06-24 12:40:30.804529905,-45.0,5.0,53.0
1904-01-01 00:14:08.800840905,E4_Acc,2024-06-24 12:40:30.835779905,-45.0,7.0,51.0
1904-01-01 00:14:08.832090905,E4_Acc,2024-06-24 12:40:30.867029905,-46.0,7.0,46.0
1904-01-01 00:14:08.863340905,E4_Acc,2024-06-24 12:40:30.898279905,-43.0,6.0,46.0
1904-01-01 00:14:08.894590905,E4_Acc,2024-06-24 12:40:30.929529905,-40.0,8.0,48.0
1904-01-01 00:14:08.925850919,E4_Acc,2024-06-24 12:40:30.960789919,-40.0,8.0,47.0
1904-01-01 00:14:08.957100919,E4_Acc,2024-06-24 12:40:30.992039919,-43.0,8.0,45.0
1904-01-01 00:14:08.988350919,E4_Acc,2024-06-24 12:40:31.023289919,-43.0,7.0,44.0
1904-01-01 00:14:09.019600919,E4_Acc,2024-06-24 12:40:31.054539919,-43.0,7.0,45.0
1904-01-01 00:14:09.050850919,E4_Acc,2024-06-24 12:40:31.085789919,-39.0,5.0,51.0
1904-01-01 00:14:09.082100919,E4_Acc,2024-06-24 12:40:31.117039919,-38.0,6.0,52.0
1904-01-01 00:14:09.113350919,E4_Acc,2024-06-24 12:40:31.148289919,-38.0,7.0,53.0
1904-01-01 00:14:09.144610932,E4_Acc,2024-06-24 12:40:31.179549932,-38.0,8.0,52.0
1904-01-01 00:14:09.175860932,E4_Acc,2024-06-24 12:40:31.210799932,-38.0,8.0,51.0
1904-01-01 00:14:09.207110932,E4_Acc,2024-06-24 12:40:31.242049932,-37.0,8.0,51.0
1904-01-01 00:14:09.238360932,E4_Acc,2024-06-24 12:40:31.273299932,-37.0,9.0,48.0
1904-01-01 00:14:09.269610932,E4_Acc,2024-06-24 12:40:31.304549932,-38.0,7.0,48.0
1904-01-01 00:14:09.300860932,E4_Acc,2024-06-24 12:40:31.335799932,-38.0,5.0,49.0
1904-01-01 00:14:09.332120946,E4_Acc,2024-06-24 12:40:31.367059946,-40.0,4.0,50.0
1904-01-01 00:14:09.363370946,E4_Acc,2024-06-24 12:40:31.398309946,-41.0,4.0,52.0
1904-01-01 00:14:09.394620946,E4_Acc,2024-06-24 12:40:31.429559946,-42.0,5.0,50.0
1904-01-01 00:14:09.425870946,E4_Acc,2024-06-24 12:40:31.460809946,-43.0,5.0,49.0
1904-01-01 00:14:09.457120946,E4_Acc,2024-06-24 12:40:31.492059946,-42.0,6.0,48.0
1904-01-01 00:14:09.488370946,E4_Acc,2024-06-24 12:40:31.523309946,-42.0,6.0,48.0
1904-01-01 00:14:09.519620946,E4_Acc,2024-06-24 12:40:31.554559946,-42.0,7.0,48.0
1904-01-01 00:14:09.550880960,E4_Acc,2024-06-24 12:40:31.585819960,-41.0,7.0,48.0
1904-01-01 00:14:09.582130960,E4_Acc,2024-06-24 12:40:31.617069960,-42.0,7.0,48.0
1904-01-01 00:14:09.613380960,E4_Acc,2024-06-24 12:40:31.648319960,-41.0,7.0,49.0
1904-01-01 00:14:09.644630960,E4_Acc,2024-06-24 12:40:31.679569960,-41.0,6.0,50.0
1904-01-01 00:14:09.675880960,E4_Acc,2024-06-24 12:40:31.710819960,-40.0,6.0,50.0
1904-01-01 00:14:09.707130960,E4_Acc,2024-06-24 12:40:31.742069960,-41.0,5.0,51.0
1904-01-01 00:14:09.738380960,E4_Acc,2024-06-24 12:40:31.773319960,-41.0,5.0,51.0
1904-01-01 00:14:09.769640973,E4_Acc,2024-06-24 12:40:31.804579973,-41.0,4.0,51.0
1904-01-01 00:14:09.800890973,E4_Acc,2024-06-24 12:40:31.835829973,-40.0,4.0,50.0
1904-01-01 00:14:09.832140973,E4_Acc,2024-06-24 12:40:31.867079973,-41.0,4.0,51.0
1904-01-01 00:14:09.863390973,E4_Acc,2024-06-24 12:40:31.898329973,-41.0,4.0,50.0
1904-01-01 00:14:09.894640973,E4_Acc,2024-06-24 12:40:31.929579973,-40.0,5.0,49.0
1904-01-01 00:14:09.925890973,E4_Acc,2024-06-24 12:40:31.960829973,-41.0,5.0,48.0
1904-01-01 00:14:09.957140973,E4_Acc,2024-06-24 12:40:31.992079973,-41.0,5.0,49.0
1904-01-01 00:14:09.988400987,E4_Acc,2024-06-24 12:40:32.023339987,-41.0,4.0,49.0
1904-01-01 00:14:10.019650987,E4_Acc,2024-06-24 12:40:32.054589987,-41.0,4.0,49.0
1904-01-01 00:14:10.050900987,E4_Acc,2024-06-24 12:40:32.085839987,-42.0,4.0,49.0
1904-01-01 00:14:10.082150987,E4_Acc,2024-06-24 12:40:32.117089987,-40.0,4.0,49.0
1904-01-01 00:14:10.113400987,E4_Acc,2024-06-24 12:40:32.148339987,-40.0,4.0,49.0
1904-01-01 00:14:10.144650987,E4_Acc,2024-06-24 12:40:32.179589987,-41.0,4.0,49.0
1904-01-01 00:14:10.175900987,E4_Acc,2024-06-24 12:40:32.210839987,-41.0,4.0,50.0
1904-01-01 00:14:10.207161000,E4_Acc,2024-06-24 12:40:32.242100000,-40.0,4.0,50.0
1904-01-01 00:14:10.238411000,E4_Acc,2024-06-24 12:40:32.273350000,-41.0,4.0,49.0
1904-01-01 00:14:10.269661000,E4_Acc,2024-06-24 12:40:32.304600000,-41.0,5.0,49.0
1904-01-01 00:14:10.300911000,E4_Acc,2024-06-24 12:40:32.335850000,-40.0,5.0,50.0
1904-01-01 00:14:10.332161000,E4_Acc,2024-06-24 12:40:32.367100000,-40.0,5.0,48.0
1904-01-01 00:14:10.363411000,E4_Acc,2024-06-24 12:40:32.398350000,-40.0,5.0,48.0
1904-01-01 00:14:10.394661000,E4_Acc,2024-06-24 12:40:32.429600000,-41.0,5.0,50.0
1904-01-01 00:14:10.425921014,E4_Acc,2024-06-24 12:40:32.460860014,-42.0,5.0,49.0
1904-01-01 00:14:10.457171014,E4_Acc,2024-06-24 12:40:32.492110014,-42.0,5.0,49.0
1904-01-01 00:14:10.488421014,E4_Acc,2024-06-24 12:40:32.523360014,-42.0,6.0,49.0
1904-01-01 00:14:10.519671014,E4_Acc,2024-06-24 12:40:32.554610014,-42.0,7.0,47.0
1904-01-01 00:14:10.550921014,E4_Acc,2024-06-24 12:40:32.585860014,-38.0,7.0,45.0
1904-01-01 00:14:10.582171014,E4_Acc,2024-06-24 12:40:32.617110014,-39.0,8.0,44.0
1904-01-01 00:14:10.613421014,E4_Acc,2024-06-24 12:40:32.648360014,-42.0,7.0,44.0
1904-01-01 00:14:10.644681028,E4_Acc,2024-06-24 12:40:32.679620028,-43.0,2.0,46.0
1904-01-01 00:14:10.675931028,E4_Acc,2024-06-24 12:40:32.710870028,-40.0,-1.0,54.0
1904-01-01 00:14:10.707181028,E4_Acc,2024-06-24 12:40:32.742120028,-37.0,-1.0,55.0
1904-01-01 00:14:10.738431028,E4_Acc,2024-06-24 12:40:32.773370028,-45.0,1.0,54.0
1904-01-01 00:14:10.769681028,E4_Acc,2024-06-24 12:40:32.804620028,-48.0,2.0,51.0
1904-01-01 00:14:10.800931028,E4_Acc,2024-06-24 12:40:32.835870028,-42.0,5.0,45.0
1904-01-01 00:14:10.832181028,E4_Acc,2024-06-24 12:40:32.867120028,-43.0,4.0,41.0
1904-01-01 00:14:10.863441041,E4_Acc,2024-06-24 12:40:32.898380041,-44.0,5.0,42.0
1904-01-01 00:14:10.894691041,E4_Acc,2024-06-24 12:40:32.929630041,-45.0,4.0,46.0
1904-01-01 00:14:10.925941041,E4_Acc,2024-06-24 12:40:32.960880041,-46.0,4.0,46.0
1904-01-01 00:14:10.957191041,E4_Acc,2024-06-24 12:40:32.992130041,-45.0,3.0,49.0
1904-01-01 00:14:10.988441041,E4_Acc,2024-06-24 12:40:33.023380041,-45.0,3.0,50.0
1904-01-01 00:14:11.019691041,E4_Acc,2024-06-24 12:40:33.054630041,-44.0,3.0,48.0
1904-01-01 00:14:11.050941041,E4_Acc,2024-06-24 12:40:33.085880041,-44.0,4.0,46.0
1904-01-01 00:14:11.082201055,E4_Acc,2024-06-24 12:40:33.117140055,-44.0,4.0,46.0
1904-01-01 00:14:11.113451055,E4_Acc,2024-06-24 12:40:33.148390055,-43.0,5.0,47.0
1904-01-01 00:14:11.144701055,E4_Acc,2024-06-24 12:40:33.179640055,-43.0,5.0,47.0
1904-01-01 00:14:11.175951055,E4_Acc,2024-06-24 12:40:33.210890055,-45.0,5.0,47.0
1904-01-01 00:14:11.207201055,E4_Acc,2024-06-24 12:40:33.242140055,-45.0,5.0,47.0
1904-01-01 00:14:11.238451055,E4_Acc,2024-06-24 12:40:33.273390055,-44.0,6.0,47.0
1904-01-01 00:14:11.269701055,E4_Acc,2024-06-24 12:40:33.304640055,-44.0,5.0,49.0
1904-01-01 00:14:11.300961068,E4_Acc,2024-06-24 12:40:33.335900068,-44.0,4.0,49.0
1904-01-01 00:14:11.332211068,E4_Acc,2024-06-24 12:40:33.367150068,-43.0,3.0,47.0
1904-01-01 00:14:11.363461068,E4_Acc,2024-06-24 12:40:33.398400068,-41.0,3.0,48.0
1904-01-01 00:14:11.394711068,E4_Acc,2024-06-24 12:40:33.429650068,-42.0,4.0,47.0
1904-01-01 00:14:11.425961068,E4_Acc,2024-06-24 12:40:33.460900068,-46.0,4.0,46.0
1904-01-01 00:14:11.457211068,E4_Acc,2024-06-24 12:40:33.492150068,-45.0,4.0,46.0
1904-01-01 00:14:11.488471082,E4_Acc,2024-06-24 12:40:33.523410082,-45.0,5.0,45.0
1904-01-01 00:14:11.519721082,E4_Acc,2024-06-24 12:40:33.554660082,-48.0,5.0,43.0
1904-01-01 00:14:11.550971082,E4_Acc,2024-06-24 12:40:33.585910082,-49.0,5.0,44.0
1904-01-01 00:14:11.582221082,E4_Acc,2024-06-24 12:40:33.617160082,-49.0,6.0,46.0
1904-01-01 00:14:11.613471082,E4_Acc,2024-06-24 12:40:33.648410082,-50.0,6.0,43.0
1904-01-01 00:14:11.644721082,E4_Acc,2024-06-24 12:40:33.679660082,-52.0,6.0,41.0
1904-01-01 00:14:11.675971082,E4_Acc,2024-06-24 12:40:33.710910082,-51.0,6.0,40.0
1904-01-01 00:14:11.707231095,E4_Acc,2024-06-24 12:40:33.742170095,-50.0,5.0,39.0
1904-01-01 00:14:11.738481095,E4_Acc,2024-06-24 12:40:33.773420095,-50.0,5.0,37.0
1904-01-01 00:14:11.769731095,E4_Acc,2024-06-24 12:40:33.804670095,-51.0,6.0,35.0
1904-01-01 00:14:11.800981095,E4_Acc,2024-06-24 12:40:33.835920095,-53.0,7.0,33.0
1904-01-01 00:14:11.832231095,E4_Acc,2024-06-24 12:40:33.867170095,-59.0,7.0,29.0
1904-01-01 00:14:11.863481095,E4_Acc,2024-06-24 12:40:33.898420095,-58.0,7.0,30.0
1904-01-01 00:14:11.894731095,E4_Acc,2024-06-24 12:40:33.929670095,-56.0,8.0,30.0
1904-01-01 00:14:11.925991109,E4_Acc,2024-06-24 12:40:33.960930109,-54.0,9.0,28.0
1904-01-01 00:14:11.957241109,E4_Acc,2024-06-24 12:40:33.992180109,-54.0,9.0,27.0
1904-01-01 00:14:11.988491109,E4_Acc,2024-06-24 12:40:34.023430109,-52.0,9.0,26.0
1904-01-01 00:14:12.019741109,E4_Acc,2024-06-24 12:40:34.054680109,-51.0,9.0,27.0
1904-01-01 00:14:12.050991109,E4_Acc,2024-06-24 12:40:34.085930109,-53.0,9.0,29.0
1904-01-01 00:14:12.082241109,E4_Acc,2024-06-24 12:40:34.117180109,-55.0,9.0,30.0
1904-01-01 00:14:12.113491109,E4_Acc,2024-06-24 12:40:34.148430109,-56.0,9.0,30.0
1904-01-01 00:14:12.144750884,E4_Acc,2024-06-24 12:40:34.179689884,-51.0,10.0,33.0
1904-01-01 00:14:12.176000884,E4_Acc,2024-06-24 12:40:34.210939884,-47.0,10.0,36.0
1904-01-01 00:14:12.207250884,E4_Acc,2024-06-24 12:40:34.242189884,-40.0,10.0,45.0
1904-01-01 00:14:12.238500884,E4_Acc,2024-06-24 12:40:34.273439884,-40.0,10.0,50.0
1904-01-01 00:14:12.269750884,E4_Acc,2024-06-24 12:40:34.304689884,-41.0,10.0,50.0
1904-01-01 00:14:12.301000884,E4_Acc,2024-06-24 12:40:34.335939884,-45.0,9.0,43.0
1904-01-01 00:14:12.332250884,E4_Acc,2024-06-24 12:40:34.367189884,-54.0,7.0,44.0
1904-01-01 00:14:12.363510898,E4_Acc,2024-06-24 12:40:34.398449898,-52.0,7.0,45.0
1904-01-01 00:14:12.394760898,E4_Acc,2024-06-24 12:40:34.429699898,-47.0,5.0,48.0
1904-01-01 00:14:12.426010898,E4_Acc,2024-06-24 12:40:34.460949898,-47.0,4.0,48.0
1904-01-01 00:14:12.457260898,E4_Acc,2024-06-24 12:40:34.492199898,-45.0,4.0,47.0
1904-01-01 00:14:12.488510897,E4_Acc,2024-06-24 12:40:34.523449897,-45.0,5.0,47.0
1904-01-01 00:14:12.519760898,E4_Acc,2024-06-24 12:40:34.554699898,-44.0,5.0,47.0
1904-01-01 00:14:12.551010898,E4_Acc,2024-06-24 12:40:34.585949898,-41.0,5.0,47.0
1904-01-01 00:14:12.582270911,E4_Acc,2024-06-24 12:40:34.617209911,-42.0,4.0,48.0
1904-01-01 00:14:12.613520911,E4_Acc,2024-06-24 12:40:34.648459911,-43.0,3.0,50.0
1904-01-01 00:14:12.644770911,E4_Acc,2024-06-24 12:40:34.679709911,-39.0,3.0,52.0
1904-01-01 00:14:12.676020911,E4_Acc,2024-06-24 12:40:34.710959911,-38.0,4.0,53.0
1904-01-01 00:14:12.707270911,E4_Acc,2024-06-24 12:40:34.742209911,-39.0,5.0,52.0
1904-01-01 00:14:12.738520911,E4_Acc,2024-06-24 12:40:34.773459911,-39.0,5.0,51.0
1904-01-01 00:14:12.769770911,E4_Acc,2024-06-24 12:40:34.804709911,-40.0,5.0,49.0
1904-01-01 00:14:12.801030925,E4_Acc,2024-06-24 12:40:34.835969925,-39.0,6.0,49.0
1904-01-01 00:14:12.832280925,E4_Acc,2024-06-24 12:40:34.867219925,-38.0,6.0,49.0
1904-01-01 00:14:12.863530925,E4_Acc,2024-06-24 12:40:34.898469925,-39.0,6.0,48.0
1904-01-01 00:14:12.894780925,E4_Acc,2024-06-24 12:40:34.929719925,-38.0,7.0,49.0
1904-01-01 00:14:12.926030925,E4_Acc,2024-06-24 12:40:34.960969925,-38.0,8.0,49.0
1904-01-01 00:14:12.957280925,E4_Acc,2024-06-24 12:40:34.992219925,-39.0,9.0,48.0
1904-01-01 00:14:12.988530925,E4_Acc,2024-06-24 12:40:35.023469925,-39.0,7.0,48.0
1904-01-01 00:14:13.019790939,E4_Acc,2024-06-24 12:40:35.054729939,-35.0,8.0,49.0
1904-01-01 00:14:13.051040939,E4_Acc,2024-06-24 12:40:35.085979939,-35.0,9.0,48.0
1904-01-01 00:14:13.082290939,E4_Acc,2024-06-24 12:40:35.117229939,-40.0,8.0,49.0
1904-01-01 00:14:13.113540939,E4_Acc,2024-06-24 12:40:35.148479939,-41.0,10.0,50.0
1904-01-01 00:14:13.144790939,E4_Acc,2024-06-24 12:40:35.179729939,-40.0,11.0,50.0
1904-01-01 00:14:13.176040939,E4_Acc,2024-06-24 12:40:35.210979939,-39.0,10.0,50.0
1904-01-01 00:14:13.207290939,E4_Acc,2024-06-24 12:40:35.242229939,-38.0,10.0,50.0
1904-01-01 00:14:13.238550952,E4_Acc,2024-06-24 12:40:35.273489952,-35.0,11.0,53.0
1904-01-01 00:14:13.269800952,E4_Acc,2024-06-24 12:40:35.304739952,-32.0,9.0,56.0
1904-01-01 00:14:13.301050952,E4_Acc,2024-06-24 12:40:35.335989952,-33.0,9.0,57.0
1904-01-01 00:14:13.332300952,E4_Acc,2024-06-24 12:40:35.367239952,-35.0,8.0,55.0
1904-01-01 00:14:13.363550952,E4_Acc,2024-06-24 12:40:35.398489952,-34.0,8.0,53.0
1904-01-01 00:14:13.394800952,E4_Acc,2024-06-24 12:40:35.429739952,-33.0,9.0,52.0
1904-01-01 00:14:13.426050952,E4_Acc,2024-06-24 12:40:35.460989952,-36.0,9.0,53.0
1904-01-01 00:14:13.457310966,E4_Acc,2024-06-24 12:40:35.492249966,-37.0,9.0,53.0
1904-01-01 00:14:13.488560966,E4_Acc,2024-06-24 12:40:35.523499966,-34.0,10.0,55.0
1904-01-01 00:14:13.519810966,E4_Acc,2024-06-24 12:40:35.554749966,-36.0,10.0,54.0
1904-01-01 00:14:13.551060966,E4_Acc,2024-06-24 12:40:35.585999966,-34.0,9.0,55.0
1904-01-01 00:14:13.582310966,E4_Acc,2024-06-24 12:40:35.617249966,-34.0,9.0,54.0
1904-01-01 00:14:13.613560966,E4_Acc,2024-06-24 12:40:35.648499966,-35.0,9.0,53.0
1904-01-01 00:14:13.644810966,E4_Acc,2024-06-24 12:40:35.679749966,-35.0,9.0,52.0
1904-01-01 00:14:13.676070979,E4_Acc,2024-06-24 12:40:35.711009979,-35.0,9.0,52.0
1904-01-01 00:14:13.707320979,E4_Acc,2024-06-24 12:40:35.742259979,-36.0,10.0,51.0
1904-01-01 00:14:13.738570979,E4_Acc,2024-06-24 12:40:35.773509979,-36.0,10.0,52.0
1904-01-01 00:14:13.769820979,E4_Acc,2024-06-24 12:40:35.804759979,-34.0,10.0,53.0
1904-01-01 00:14:13.801070979,E4_Acc,2024-06-24 12:40:35.836009979,-33.0,10.0,54.0
1904-01-01 00:14:13.832320979,E4_Acc,2024-06-24 12:40:35.867259979,-35.0,9.0,54.0
1904-01-01 00:14:13.863570979,E4_Acc,2024-06-24 12:40:35.898509979,-34.0,9.0,55.0
1904-01-01 00:14:13.894830993,E4_Acc,2024-06-24 12:40:35.929769993,-34.0,9.0,54.0
1904-01-01 00:14:13.926080993,E4_Acc,2024-06-24 12:40:35.961019993,-34.0,9.0,54.0
1904-01-01 00:14:13.957330993,E4_Acc,2024-06-24 12:40:35.992269993,-34.0,9.0,53.0
1904-01-01 00:14:13.988580993,E4_Acc,2024-06-24 12:40:36.023519993,-34.0,9.0,53.0
1904-01-01 00:14:14.019830993,E4_Acc,2024-06-24 12:40:36.054769993,-33.0,10.0,52.0
1904-01-01 00:14:14.051080993,E4_Acc,2024-06-24 12:40:36.086019993,-35.0,9.0,54.0
1904-01-01 00:14:14.082341006,E4_Acc,2024-06-24 12:40:36.117280006,-35.0,8.0,55.0
1904-01-01 00:14:14.113591006,E4_Acc,2024-06-24 12:40:36.148530006,-33.0,6.0,53.0
1904-01-01 00:14:14.144841006,E4_Acc,2024-06-24 12:40:36.179780006,-35.0,6.0,53.0
1904-01-01 00:14:14.176091006,E4_Acc,2024-06-24 12:40:36.211030006,-36.0,6.0,53.0
1904-01-01 00:14:14.207341006,E4_Acc,2024-06-24 12:40:36.242280006,-38.0,9.0,50.0
1904-01-01 00:14:14.238591006,E4_Acc,2024-06-24 12:40:36.273530006,-36.0,12.0,52.0
1904-01-01 00:14:14.269841006,E4_Acc,2024-06-24 12:40:36.304780006,-36.0,12.0,55.0
1904-01-01 00:14:14.301101020,E4_Acc,2024-06-24 12:40:36.336040020,-33.0,12.0,56.0
1904-01-01 00:14:14.332351020,E4_Acc,2024-06-24 12:40:36.367290020,-32.0,11.0,55.0
1904-01-01 00:14:14.363601020,E4_Acc,2024-06-24 12:40:36.398540020,-33.0,10.0,55.0
1904-01-01 00:14:14.394851020,E4_Acc,2024-06-24 12:40:36.429790020,-35.0,10.0,54.0
1904-01-01 00:14:14.426101020,E4_Acc,2024-06-24 12:40:36.461040020,-34.0,8.0,51.0
1904-01-01 00:14:14.457351020,E4_Acc,2024-06-24 12:40:36.492290020,-33.0,8.0,52.0
1904-01-01 00:14:14.488601020,E4_Acc,2024-06-24 12:40:36.523540020,-34.0,7.0,52.0
1904-01-01 00:14:14.519861034,E4_Acc,2024-06-24 12:40:36.554800034,-34.0,9.0,54.0
1904-01-01 00:14:14.551111034,E4_Acc,2024-06-24 12:40:36.586050034,-35.0,9.0,55.0
1904-01-01 00:14:14.582361034,E4_Acc,2024-06-24 12:40:36.617300034,-35.0,8.0,55.0
1904-01-01 00:14:14.613611034,E4_Acc,2024-06-24 12:40:36.648550034,-33.0,8.0,54.0
1904-01-01 00:14:14.644861034,E4_Acc,2024-06-24 12:40:36.679800034,-33.0,9.0,54.0
1904-01-01 00:14:14.676111034,E4_Acc,2024-06-24 12:40:36.711050034,-34.0,9.0,54.0
1904-01-01 00:14:14.707361034,E4_Acc,2024-06-24 12:40:36.742300034,-33.0,9.0,54.0
1904-01-01 00:14:14.738621047,E4_Acc,2024-06-24 12:40:36.773560047,-33.0,8.0,54.0
1904-01-01 00:14:14.769871047,E4_Acc,2024-06-24 12:40:36.804810047,-34.0,8.0,54.0
1904-01-01 00:14:14.801121047,E4_Acc,2024-06-24 12:40:36.836060047,-34.0,8.0,55.0
1904-01-01 00:14:14.832371047,E4_Acc,2024-06-24 12:40:36.867310047,-33.0,9.0,54.0
1904-01-01 00:14:14.863621047,E4_Acc,2024-06-24 12:40:36.898560047,-34.0,10.0,53.0
1904-01-01 00:14:14.894871047,E4_Acc,2024-06-24 12:40:36.929810047,-35.0,10.0,52.0
1904-01-01 00:14:14.926121047,E4_Acc,2024-06-24 12:40:36.961060047,-34.0,9.0,51.0
1904-01-01 00:14:14.957381061,E4_Acc,2024-06-24 12:40:36.992320061,-32.0,9.0,51.0
1904-01-01 00:14:14.988631061,E4_Acc,2024-06-24 12:40:37.023570061,-34.0,7.0,51.0
1904-01-01 00:14:15.019881061,E4_Acc,2024-06-24 12:40:37.054820061,-38.0,7.0,53.0
1904-01-01 00:14:15.051131061,E4_Acc,2024-06-24 12:40:37.086070061,-38.0,9.0,54.0
1904-01-01 00:14:15.082381061,E4_Acc,2024-06-24 12:40:37.117320061,-38.0,10.0,55.0
1904-01-01 00:14:15.113631061,E4_Acc,2024-06-24 12:40:37.148570061,-35.0,10.0,53.0
1904-01-01 00:14:15.144881061,E4_Acc,2024-06-24 12:40:37.179820061,-35.0,9.0,52.0
1904-01-01 00:14:15.176141074,E4_Acc,2024-06-24 12:40:37.211080074,-38.0,11.0,52.0
1904-01-01 00:14:15.207391074,E4_Acc,2024-06-24 12:40:37.242330074,-37.0,10.0,52.0
1904-01-01 00:14:15.238641074,E4_Acc,2024-06-24 12:40:37.273580074,-36.0,10.0,50.0
1904-01-01 00:14:15.269891074,E4_Acc,2024-06-24 12:40:37.304830074,-37.0,9.0,50.0
1904-01-01 00:14:15.301141074,E4_Acc,2024-06-24 12:40:37.336080074,-37.0,10.0,53.0
1904-01-01 00:14:15.332391074,E4_Acc,2024-06-24 12:40:37.367330074,-36.0,11.0,51.0
1904-01-01 00:14:15.363641074,E4_Acc,2024-06-24 12:40:37.398580074,-36.0,10.0,53.0
1904-01-01 00:14:15.394901088,E4_Acc,2024-06-24 12:40:37.429840088,-35.0,11.0,54.0
1904-01-01 00:14:15.426151088,E4_Acc,2024-06-24 12:40:37.461090088,-38.0,11.0,62.0
1904-01-01 00:14:15.457401088,E4_Acc,2024-06-24 12:40:37.492340088,-36.0,12.0,65.0
1904-01-01 00:14:15.488651087,E4_Acc,2024-06-24 12:40:37.523590087,-30.0,12.0,36.0
1904-01-01 00:14:15.519901088,E4_Acc,2024-06-24 12:40:37.554840088,-38.0,6.0,26.0
1904-01-01 00:14:15.551151088,E4_Acc,2024-06-24 12:40:37.586090088,-47.0,3.0,53.0
1904-01-01 00:14:15.582401088,E4_Acc,2024-06-24 12:40:37.617340088,-36.0,7.0,70.0
1904-01-01 00:14:15.613661101,E4_Acc,2024-06-24 12:40:37.648600101,-38.0,16.0,60.0
1904-01-01 00:14:15.644911101,E4_Acc,2024-06-24 12:40:37.679850101,-38.0,13.0,49.0
1904-01-01 00:14:15.676161101,E4_Acc,2024-06-24 12:40:37.711100101,-37.0,13.0,48.0
1904-01-01 00:14:15.707411101,E4_Acc,2024-06-24 12:40:37.742350101,-38.0,13.0,48.0
1904-01-01 00:14:15.738661101,E4_Acc,2024-06-24 12:40:37.773600101,-36.0,12.0,48.0
1904-01-01 00:14:15.769911101,E4_Acc,2024-06-24 12:40:37.804850101,-36.0,11.0,49.0
1904-01-01 00:14:15.801161101,E4_Acc,2024-06-24 12:40:37.836100101,-38.0,11.0,52.0
1904-01-01 00:14:15.832421115,E4_Acc,2024-06-24 12:40:37.867360115,-38.0,10.0,54.0
1904-01-01 00:14:15.863671115,E4_Acc,2024-06-24 12:40:37.898610115,-37.0,10.0,52.0
1904-01-01 00:14:15.894921115,E4_Acc,2024-06-24 12:40:37.929860115,-36.0,10.0,53.0
1904-01-01 00:14:15.926171115,E4_Acc,2024-06-24 12:40:37.961110115,-37.0,11.0,52.0
1904-01-01 00:14:15.957421115,E4_Acc,2024-06-24 12:40:37.992360115,-36.0,11.0,50.0
1904-01-01 00:14:15.988671115,E4_Acc,2024-06-24 12:40:38.023610115,-35.0,11.0,51.0
1904-01-01 00:14:16.019921115,E4_Acc,2024-06-24 12:40:38.054860115,-36.0,11.0,52.0
1904-01-01 00:14:16.051180890,E4_Acc,2024-06-24 12:40:38.086119890,-37.0,12.0,52.0
1904-01-01 00:14:16.082430890,E4_Acc,2024-06-24 12:40:38.117369890,-36.0,12.0,53.0
1904-01-01 00:14:16.113680890,E4_Acc,2024-06-24 12:40:38.148619890,-35.0,12.0,53.0
1904-01-01 00:14:16.144930890,E4_Acc,2024-06-24 12:40:38.179869890,-35.0,12.0,53.0
1904-01-01 00:14:16.176180890,E4_Acc,2024-06-24 12:40:38.211119890,-35.0,14.0,52.0
1904-01-01 00:14:16.207430890,E4_Acc,2024-06-24 12:40:38.242369890,-33.0,15.0,50.0
1904-01-01 00:14:16.238680890,E4_Acc,2024-06-24 12:40:38.273619890,-33.0,14.0,50.0
1904-01-01 00:14:16.269940904,E4_Acc,2024-06-24 12:40:38.304879904,-33.0,13.0,52.0
1904-01-01 00:14:16.301190904,E4_Acc,2024-06-24 12:40:38.336129904,-34.0,13.0,53.0
1904-01-01 00:14:16.332440904,E4_Acc,2024-06-24 12:40:38.367379904,-34.0,13.0,52.0
1904-01-01 00:14:16.363690904,E4_Acc,2024-06-24 12:40:38.398629904,-35.0,15.0,53.0
1904-01-01 00:14:16.394940904,E4_Acc,2024-06-24 12:40:38.429879904,-36.0,15.0,53.0
1904-01-01 00:14:16.426190904,E4_Acc,2024-06-24 12:40:38.461129904,-35.0,15.0,53.0
1904-01-01 00:14:16.457440904,E4_Acc,2024-06-24 12:40:38.492379904,-35.0,15.0,53.0
1904-01-01 00:14:16.488700917,E4_Acc,2024-06-24 12:40:38.523639917,-33.0,15.0,51.0
1904-01-01 00:14:16.519950917,E4_Acc,2024-06-24 12:40:38.554889917,-34.0,15.0,50.0
1904-01-01 00:14:16.551200917,E4_Acc,2024-06-24 12:40:38.586139917,-33.0,16.0,50.0
1904-01-01 00:14:16.582450917,E4_Acc,2024-06-24 12:40:38.617389917,-34.0,16.0,51.0
1904-01-01 00:14:16.613700917,E4_Acc,2024-06-24 12:40:38.648639917,-35.0,17.0,51.0
1904-01-01 00:14:16.644950917,E4_Acc,2024-06-24 12:40:38.679889917,-35.0,17.0,52.0
1904-01-01 00:14:16.676210931,E4_Acc,2024-06-24 12:40:38.711149931,-35.0,17.0,52.0
1904-01-01 00:14:16.707460931,E4_Acc,2024-06-24 12:40:38.742399931,-35.0,17.0,52.0
1904-01-01 00:14:16.738710931,E4_Acc,2024-06-24 12:40:38.773649931,-34.0,18.0,52.0
1904-01-01 00:14:16.769960931,E4_Acc,2024-06-24 12:40:38.804899931,-34.0,18.0,52.0
1904-01-01 00:14:16.801210931,E4_Acc,2024-06-24 12:40:38.836149931,-34.0,18.0,53.0
1904-01-01 00:14:16.832460931,E4_Acc,2024-06-24 12:40:38.867399931,-34.0,17.0,53.0
1904-01-01 00:14:16.863710931,E4_Acc,2024-06-24 12:40:38.898649931,-34.0,18.0,52.0
1904-01-01 00:14:16.894970945,E4_Acc,2024-06-24 12:40:38.929909945,-34.0,18.0,52.0
1904-01-01 00:14:16.926220945,E4_Acc,2024-06-24 12:40:38.961159945,-34.0,17.0,51.0
1904-01-01 00:14:16.957470945,E4_Acc,2024-06-24 12:40:38.992409945,-34.0,17.0,51.0
1904-01-01 00:14:16.988720945,E4_Acc,2024-06-24 12:40:39.023659945,-34.0,18.0,51.0
1904-01-01 00:14:17.019970945,E4_Acc,2024-06-24 12:40:39.054909945,-34.0,18.0,51.0
1904-01-01 00:14:17.051220945,E4_Acc,2024-06-24 12:40:39.086159945,-33.0,17.0,50.0
1904-01-01 00:14:17.082470945,E4_Acc,2024-06-24 12:40:39.117409945,-34.0,17.0,50.0
1904-01-01 00:14:17.113730958,E4_Acc,2024-06-24 12:40:39.148669958,-35.0,18.0,51.0
1904-01-01 00:14:17.144980958,E4_Acc,2024-06-24 12:40:39.179919958,-34.0,18.0,51.0
1904-01-01 00:14:17.176230958,E4_Acc,2024-06-24 12:40:39.211169958,-34.0,18.0,50.0
1904-01-01 00:14:17.207480958,E4_Acc,2024-06-24 12:40:39.242419958,-34.0,19.0,51.0
1904-01-01 00:14:17.238730958,E4_Acc,2024-06-24 12:40:39.273669958,-34.0,19.0,50.0
1904-01-01 00:14:17.269980958,E4_Acc,2024-06-24 12:40:39.304919958,-34.0,19.0,50.0
1904-01-01 00:14:17.301230958,E4_Acc,2024-06-24 12:40:39.336169958,-35.0,19.0,51.0
1904-01-01 00:14:17.332490972,E4_Acc,2024-06-24 12:40:39.367429972,-33.0,19.0,52.0
1904-01-01 00:14:17.363740972,E4_Acc,2024-06-24 12:40:39.398679972,-34.0,19.0,52.0
1904-01-01 00:14:17.394990972,E4_Acc,2024-06-24 12:40:39.429929972,-34.0,18.0,51.0
1904-01-01 00:14:17.426240972,E4_Acc,2024-06-24 12:40:39.461179972,-35.0,19.0,52.0
1904-01-01 00:14:17.457490972,E4_Acc,2024-06-24 12:40:39.492429972,-36.0,19.0,52.0
1904-01-01 00:14:17.488740972,E4_Acc,2024-06-24 12:40:39.523679972,-35.0,19.0,52.0
1904-01-01 00:14:17.519990972,E4_Acc,2024-06-24 12:40:39.554929972,-35.0,18.0,49.0
1904-01-01 00:14:17.551250985,E4_Acc,2024-06-24 12:40:39.586189985,-35.0,18.0,49.0
1904-01-01 00:14:17.582500985,E4_Acc,2024-06-24 12:40:39.617439985,-35.0,18.0,50.0
1904-01-01 00:14:17.613750985,E4_Acc,2024-06-24 12:40:39.648689985,-35.0,18.0,49.0
1904-01-01 00:14:17.645000985,E4_Acc,2024-06-24 12:40:39.679939985,-35.0,17.0,50.0
1904-01-01 00:14:17.676250985,E4_Acc,2024-06-24 12:40:39.711189985,-36.0,18.0,51.0
1904-01-01 00:14:17.707500985,E4_Acc,2024-06-24 12:40:39.742439985,-35.0,18.0,50.0
1904-01-01 00:14:17.738750985,E4_Acc,2024-06-24 12:40:39.773689985,-35.0,19.0,51.0
1904-01-01 00:14:17.770010999,E4_Acc,2024-06-24 12:40:39.804949999,-33.0,19.0,52.0
1904-01-01 00:14:17.801260999,E4_Acc,2024-06-24 12:40:39.836199999,-36.0,18.0,48.0
1904-01-01 00:14:17.832510999,E4_Acc,2024-06-24 12:40:39.867449999,-36.0,18.0,49.0
1904-01-01 00:14:17.863760999,E4_Acc,2024-06-24 12:40:39.898699999,-36.0,18.0,52.0
1904-01-01 00:14:17.895010999,E4_Acc,2024-06-24 12:40:39.929949999,-36.0,18.0,53.0
1904-01-01 00:14:17.926260999,E4_Acc,2024-06-24 12:40:39.961199999,-36.0,18.0,51.0
1904-01-01 00:14:17.957510999,E4_Acc,2024-06-24 12:40:39.992449999,-37.0,19.0,50.0
1904-01-01 00:14:17.988771012,E4_Acc,2024-06-24 12:40:40.023710012,-36.0,19.0,50.0
1904-01-01 00:14:18.020021012,E4_Acc,2024-06-24 12:40:40.054960012,-35.0,18.0,49.0
1904-01-01 00:14:18.051271012,E4_Acc,2024-06-24 12:40:40.086210012,-36.0,19.0,49.0
1904-01-01 00:14:18.082521012,E4_Acc,2024-06-24 12:40:40.117460012,-37.0,19.0,51.0
1904-01-01 00:14:18.113771012,E4_Acc,2024-06-24 12:40:40.148710012,-35.0,19.0,49.0
1904-01-01 00:14:18.145021012,E4_Acc,2024-06-24 12:40:40.179960012,-34.0,19.0,48.0
1904-01-01 00:14:18.176271012,E4_Acc,2024-06-24 12:40:40.211210012,-34.0,19.0,48.0
1904-01-01 00:14:18.207531026,E4_Acc,2024-06-24 12:40:40.242470026,-35.0,19.0,47.0
1904-01-01 00:14:18.238781026,E4_Acc,2024-06-24 12:40:40.273720026,-39.0,16.0,50.0
1904-01-01 00:14:18.270031026,E4_Acc,2024-06-24 12:40:40.304970026,-34.0,15.0,50.0
1904-01-01 00:14:18.301281026,E4_Acc,2024-06-24 12:40:40.336220026,-34.0,13.0,49.0
1904-01-01 00:14:18.332531026,E4_Acc,2024-06-24 12:40:40.367470026,-41.0,17.0,56.0
1904-01-01 00:14:18.363781026,E4_Acc,2024-06-24 12:40:40.398720026,-41.0,19.0,56.0
1904-01-01 00:14:18.395031026,E4_Acc,2024-06-24 12:40:40.429970026,-37.0,19.0,51.0
1904-01-01 00:14:18.426291040,E4_Acc,2024-06-24 12:40:40.461230040,-35.0,18.0,48.0
1904-01-01 00:14:18.457541040,E4_Acc,2024-06-24 12:40:40.492480040,-35.0,18.0,47.0
1904-01-01 00:14:18.488791040,E4_Acc,2024-06-24 12:40:40.523730040,-35.0,17.0,47.0
1904-01-01 00:14:18.520041040,E4_Acc,2024-06-24 12:40:40.554980040,-35.0,16.0,47.0
1904-01-01 00:14:18.551291040,E4_Acc,2024-06-24 12:40:40.586230040,-38.0,16.0,49.0
1904-01-01 00:14:18.582541040,E4_Acc,2024-06-24 12:40:40.617480040,-39.0,16.0,53.0
1904-01-01 00:14:18.613791040,E4_Acc,2024-06-24 12:40:40.648730040,-38.0,16.0,53.0
1904-01-01 00:14:18.645051053,E4_Acc,2024-06-24 12:40:40.679990053,-37.0,16.0,51.0
1904-01-01 00:14:18.676301053,E4_Acc,2024-06-24 12:40:40.711240053,-36.0,16.0,49.0
1904-01-01 00:14:18.707551053,E4_Acc,2024-06-24 12:40:40.742490053,-35.0,17.0,49.0
1904-01-01 00:14:18.738801053,E4_Acc,2024-06-24 12:40:40.773740053,-36.0,17.0,49.0
1904-01-01 00:14:18.770051053,E4_Acc,2024-06-24 12:40:40.804990053,-36.0,16.0,48.0
1904-01-01 00:14:18.801301053,E4_Acc,2024-06-24 12:40:40.836240053,-38.0,17.0,50.0
1904-01-01 00:14:18.832561067,E4_Acc,2024-06-24 12:40:40.867500067,-37.0,16.0,50.0
1904-01-01 00:14:18.863811067,E4_Acc,2024-06-24 12:40:40.898750067,-36.0,16.0,49.0
1904-01-01 00:14:18.895061067,E4_Acc,2024-06-24 12:40:40.930000067,-37.0,16.0,50.0
1904-01-01 00:14:18.926311067,E4_Acc,2024-06-24 12:40:40.961250067,-37.0,16.0,51.0
1904-01-01 00:14:18.957561067,E4_Acc,2024-06-24 12:40:40.992500067,-36.0,15.0,50.0
1904-01-01 00:14:18.988811067,E4_Acc,2024-06-24 12:40:41.023750067,-36.0,15.0,51.0
1904-01-01 00:14:19.020061067,E4_Acc,2024-06-24 12:40:41.055000067,-36.0,15.0,50.0
1904-01-01 00:14:19.051321080,E4_Acc,2024-06-24 12:40:41.086260080,-36.0,15.0,51.0
1904-01-01 00:14:19.082571080,E4_Acc,2024-06-24 12:40:41.117510080,-36.0,15.0,50.0
1904-01-01 00:14:19.113821080,E4_Acc,2024-06-24 12:40:41.148760080,-37.0,15.0,51.0
1904-01-01 00:14:19.145071080,E4_Acc,2024-06-24 12:40:41.180010080,-36.0,15.0,49.0
1904-01-01 00:14:19.176321080,E4_Acc,2024-06-24 12:40:41.211260080,-37.0,15.0,50.0
1904-01-01 00:14:19.207571080,E4_Acc,2024-06-24 12:40:41.242510080,-37.0,16.0,51.0
1904-01-01 00:14:19.238821080,E4_Acc,2024-06-24 12:40:41.273760080,-37.0,16.0,50.0
1904-01-01 00:14:19.270081094,E4_Acc,2024-06-24 12:40:41.305020094,-37.0,17.0,51.0
1904-01-01 00:14:19.301331094,E4_Acc,2024-06-24 12:40:41.336270094,-37.0,15.0,51.0
1904-01-01 00:14:19.332581094,E4_Acc,2024-06-24 12:40:41.367520094,-36.0,15.0,51.0
1904-01-01 00:14:19.363831094,E4_Acc,2024-06-24 12:40:41.398770094,-37.0,16.0,50.0
1904-01-01 00:14:19.395081094,E4_Acc,2024-06-24 12:40:41.430020094,-36.0,16.0,51.0
1904-01-01 00:14:19.426331094,E4_Acc,2024-06-24 12:40:41.461270094,-37.0,15.0,51.0
1904-01-01 00:14:19.457581094,E4_Acc,2024-06-24 12:40:41.492520094,-37.0,15.0,51.0
1904-01-01 00:14:19.488841107,E4_Acc,2024-06-24 12:40:41.523780107,-37.0,16.0,52.0
1904-01-01 00:14:19.520091107,E4_Acc,2024-06-24 12:40:41.555030107,-37.0,14.0,51.0
1904-01-01 00:14:19.551341107,E4_Acc,2024-06-24 12:40:41.586280107,-36.0,14.0,50.0
1904-01-01 00:14:19.582591107,E4_Acc,2024-06-24 12:40:41.617530107,-37.0,14.0,51.0
1904-01-01 00:14:19.613841107,E4_Acc,2024-06-24 12:40:41.648780107,-37.0,15.0,50.0
1904-01-01 00:14:19.645091107,E4_Acc,2024-06-24 12:40:41.680030107,-38.0,15.0,51.0
1904-01-01 00:14:19.676341107,E4_Acc,2024-06-24 12:40:41.711280107,-38.0,15.0,51.0
1904-01-01 00:14:19.707600883,E4_Acc,2024-06-24 12:40:41.742539883,-37.0,15.0,51.0
1904-01-01 00:14:19.738850883,E4_Acc,2024-06-24 12:40:41.773789883,-36.0,17.0,51.0
1904-01-01 00:14:19.770100883,E4_Acc,2024-06-24 12:40:41.805039883,-37.0,17.0,50.0
1904-01-01 00:14:19.801350883,E4_Acc,2024-06-24 12:40:41.836289883,-36.0,18.0,50.0
1904-01-01 00:14:19.832600883,E4_Acc,2024-06-24 12:40:41.867539883,-36.0,16.0,49.0
1904-01-01 00:14:19.863850883,E4_Acc,2024-06-24 12:40:41.898789883,-35.0,16.0,50.0
1904-01-01 00:14:19.895100883,E4_Acc,2024-06-24 12:40:41.930039883,-35.0,16.0,50.0
1904-01-01 00:14:19.926360896,E4_Acc,2024-06-24 12:40:41.961299896,-36.0,16.0,51.0
1904-01-01 00:14:19.957610896,E4_Acc,2024-06-24 12:40:41.992549896,-36.0,16.0,51.0
1904-01-01 00:14:19.988860896,E4_Acc,2024-06-24 12:40:42.023799896,-35.0,16.0,50.0
1904-01-01 00:14:20.020110896,E4_Acc,2024-06-24 12:40:42.055049896,-35.0,19.0,49.0
1904-01-01 00:14:20.051360896,E4_Acc,2024-06-24 12:40:42.086299896,-35.0,19.0,49.0
1904-01-01 00:14:20.082610896,E4_Acc,2024-06-24 12:40:42.117549896,-35.0,19.0,50.0
1904-01-01 00:14:20.113860896,E4_Acc,2024-06-24 12:40:42.148799896,-35.0,19.0,50.0
1904-01-01 00:14:20.145120910,E4_Acc,2024-06-24 12:40:42.180059910,-35.0,19.0,51.0
1904-01-01 00:14:20.176370910,E4_Acc,2024-06-24 12:40:42.211309910,-35.0,18.0,52.0
1904-01-01 00:14:20.207620910,E4_Acc,2024-06-24 12:40:42.242559910,-35.0,18.0,51.0
1904-01-01 00:14:20.238870910,E4_Acc,2024-06-24 12:40:42.273809910,-34.0,19.0,50.0
1904-01-01 00:14:20.270120910,E4_Acc,2024-06-24 12:40:42.305059910,-35.0,19.0,51.0
1904-01-01 00:14:20.301370910,E4_Acc,2024-06-24 12:40:42.336309910,-35.0,19.0,50.0
1904-01-01 00:14:20.332620910,E4_Acc,2024-06-24 12:40:42.367559910,-35.0,18.0,51.0
1904-01-01 00:14:20.363880923,E4_Acc,2024-06-24 12:40:42.398819923,-35.0,18.0,51.0
1904-01-01 00:14:20.395130923,E4_Acc,2024-06-24 12:40:42.430069923,-35.0,18.0,50.0
1904-01-01 00:14:20.426380923,E4_Acc,2024-06-24 12:40:42.461319923,-35.0,18.0,50.0
1904-01-01 00:14:20.457630923,E4_Acc,2024-06-24 12:40:42.492569923,-35.0,18.0,50.0
1904-01-01 00:14:20.488880923,E4_Acc,2024-06-24 12:40:42.523819923,-35.0,18.0,49.0
1904-01-01 00:14:20.520130923,E4_Acc,2024-06-24 12:40:42.555069923,-35.0,18.0,50.0
1904-01-01 00:14:20.551380923,E4_Acc,2024-06-24 12:40:42.586319923,-35.0,18.0,50.0
1904-01-01 00:14:20.582640937,E4_Acc,2024-06-24 12:40:42.617579937,-35.0,18.0,50.0
1904-01-01 00:14:20.613890937,E4_Acc,2024-06-24 12:40:42.648829937,-35.0,18.0,50.0
1904-01-01 00:14:20.645140937,E4_Acc,2024-06-24 12:40:42.680079937,-35.0,18.0,51.0
1904-01-01 00:14:20.676390937,E4_Acc,2024-06-24 12:40:42.711329937,-36.0,18.0,51.0
1904-01-01 00:14:20.707640937,E4_Acc,2024-06-24 12:40:42.742579937,-36.0,19.0,51.0
1904-01-01 00:14:20.738890937,E4_Acc,2024-06-24 12:40:42.773829937,-36.0,19.0,51.0
1904-01-01 00:14:20.770140937,E4_Acc,2024-06-24 12:40:42.805079937,-36.0,18.0,51.0
1904-01-01 00:14:20.801400951,E4_Acc,2024-06-24 12:40:42.836339951,-35.0,18.0,50.0
1904-01-01 00:14:20.832650951,E4_Acc,2024-06-24 12:40:42.867589951,-35.0,18.0,50.0
1904-01-01 00:14:20.863900951,E4_Acc,2024-06-24 12:40:42.898839951,-35.0,18.0,50.0
1904-01-01 00:14:20.895150951,E4_Acc,2024-06-24 12:40:42.930089951,-36.0,18.0,50.0
1904-01-01 00:14:20.926400951,E4_Acc,2024-06-24 12:40:42.961339951,-36.0,18.0,50.0
1904-01-01 00:14:20.957650951,E4_Acc,2024-06-24 12:40:42.992589951,-36.0,18.0,50.0
1904-01-01 00:14:20.988900951,E4_Acc,2024-06-24 12:40:43.023839951,-36.0,18.0,50.0
1904-01-01 00:14:21.020160964,E4_Acc,2024-06-24 12:40:43.055099964,-36.0,18.0,50.0
1904-01-01 00:14:21.051410964,E4_Acc,2024-06-24 12:40:43.086349964,-36.0,18.0,50.0
1904-01-01 00:14:21.082660964,E4_Acc,2024-06-24 12:40:43.117599964,-35.0,18.0,50.0
1904-01-01 00:14:21.113910964,E4_Acc,2024-06-24 12:40:43.148849964,-35.0,18.0,50.0
1904-01-01 00:14:21.145160964,E4_Acc,2024-06-24 12:40:43.180099964,-35.0,18.0,50.0
1904-01-01 00:14:21.176410964,E4_Acc,2024-06-24 12:40:43.211349964,-36.0,18.0,51.0
1904-01-01 00:14:21.207660964,E4_Acc,2024-06-24 12:40:43.242599964,-35.0,19.0,50.0
1904-01-01 00:14:21.238920978,E4_Acc,2024-06-24 12:40:43.273859978,-35.0,19.0,50.0
1904-01-01 00:14:21.270170978,E4_Acc,2024-06-24 12:40:43.305109978,-35.0,19.0,50.0
1904-01-01 00:14:21.301420978,E4_Acc,2024-06-24 12:40:43.336359978,-35.0,19.0,50.0
1904-01-01 00:14:21.332670978,E4_Acc,2024-06-24 12:40:43.367609978,-36.0,19.0,50.0
1904-01-01 00:14:21.363920978,E4_Acc,2024-06-24 12:40:43.398859978,-35.0,19.0,50.0
1904-01-01 00:14:21.395170978,E4_Acc,2024-06-24 12:40:43.430109978,-35.0,19.0,49.0
1904-01-01 00:14:21.426420978,E4_Acc,2024-06-24 12:40:43.461359978,-35.0,19.0,50.0
1904-01-01 00:14:21.457680991,E4_Acc,2024-06-24 12:40:43.492619991,-35.0,19.0,50.0
1904-01-01 00:14:21.488930991,E4_Acc,2024-06-24 12:40:43.523869991,-35.0,19.0,50.0
1904-01-01 00:14:21.520180991,E4_Acc,2024-06-24 12:40:43.555119991,-36.0,19.0,50.0
1904-01-01 00:14:21.551430991,E4_Acc,2024-06-24 12:40:43.586369991,-35.0,19.0,50.0
1904-01-01 00:14:21.582680991,E4_Acc,2024-06-24 12:40:43.617619991,-35.0,19.0,50.0
1904-01-01 00:14:21.613930991,E4_Acc,2024-06-24 12:40:43.648869991,-35.0,19.0,50.0
1904-01-01 00:14:21.645191005,E4_Acc,2024-06-24 12:40:43.680130005,-35.0,19.0,49.0
1904-01-01 00:14:21.676441005,E4_Acc,2024-06-24 12:40:43.711380005,-36.0,19.0,50.0
1904-01-01 00:14:21.707691005,E4_Acc,2024-06-24 12:40:43.742630005,-36.0,18.0,50.0
1904-01-01 00:14:21.738941005,E4_Acc,2024-06-24 12:40:43.773880005,-36.0,19.0,50.0
1904-01-01 00:14:21.770191005,E4_Acc,2024-06-24 12:40:43.805130005,-36.0,18.0,50.0
1904-01-01 00:14:21.801441005,E4_Acc,2024-06-24 12:40:43.836380005,-35.0,19.0,49.0
1904-01-01 00:14:21.832691005,E4_Acc,2024-06-24 12:40:43.867630005,-36.0,19.0,50.0
1904-01-01 00:14:21.863951018,E4_Acc,2024-06-24 12:40:43.898890018,-36.0,19.0,50.0
1904-01-01 00:14:21.895201018,E4_Acc,2024-06-24 12:40:43.930140018,-36.0,18.0,50.0
1904-01-01 00:14:21.926451018,E4_Acc,2024-06-24 12:40:43.961390018,-36.0,18.0,50.0
1904-01-01 00:14:21.957701018,E4_Acc,2024-06-24 12:40:43.992640018,-36.0,18.0,50.0
1904-01-01 00:14:21.988951018,E4_Acc,2024-06-24 12:40:44.023890018,-36.0,18.0,50.0
1904-01-01 00:14:22.020201018,E4_Acc,2024-06-24 12:40:44.055140018,-35.0,17.0,50.0
1904-01-01 00:14:22.051451018,E4_Acc,2024-06-24 12:40:44.086390018,-36.0,17.0,50.0
1904-01-01 00:14:22.082711032,E4_Acc,2024-06-24 12:40:44.117650032,-36.0,17.0,50.0
1904-01-01 00:14:22.113961032,E4_Acc,2024-06-24 12:40:44.148900032,-36.0,17.0,50.0
1904-01-01 00:14:22.145211032,E4_Acc,2024-06-24 12:40:44.180150032,-36.0,17.0,50.0
1904-01-01 00:14:22.176461032,E4_Acc,2024-06-24 12:40:44.211400032,-36.0,17.0,50.0
1904-01-01 00:14:22.207711032,E4_Acc,2024-06-24 12:40:44.242650032,-36.0,17.0,50.0
1904-01-01 00:14:22.238961032,E4_Acc,2024-06-24 12:40:44.273900032,-36.0,18.0,50.0
1904-01-01 00:14:22.270211032,E4_Acc,2024-06-24 12:40:44.305150032,-36.0,17.0,50.0
1904-01-01 00:14:22.301471046,E4_Acc,2024-06-24 12:40:44.336410046,-36.0,17.0,51.0
1904-01-01 00:14:22.332721046,E4_Acc,2024-06-24 12:40:44.367660046,-36.0,17.0,50.0
1904-01-01 00:14:22.363971046,E4_Acc,2024-06-24 12:40:44.398910046,-35.0,17.0,50.0
1904-01-01 00:14:22.395221046,E4_Acc,2024-06-24 12:40:44.430160046,-36.0,17.0,50.0
1904-01-01 00:14:22.426471046,E4_Acc,2024-06-24 12:40:44.461410046,-36.0,17.0,50.0
1904-01-01 00:14:22.457721046,E4_Acc,2024-06-24 12:40:44.492660046,-36.0,18.0,50.0
1904-01-01 00:14:22.488971046,E4_Acc,2024-06-24 12:40:44.523910046,-36.0,18.0,50.0
1904-01-01 00:14:22.520231059,E4_Acc,2024-06-24 12:40:44.555170059,-36.0,18.0,50.0
1904-01-01 00:14:22.551481059,E4_Acc,2024-06-24 12:40:44.586420059,-36.0,18.0,50.0
1904-01-01 00:14:22.582731059,E4_Acc,2024-06-24 12:40:44.617670059,-36.0,18.0,50.0
1904-01-01 00:14:22.613981059,E4_Acc,2024-06-24 12:40:44.648920059,-36.0,18.0,50.0
1904-01-01 00:14:22.645231059,E4_Acc,2024-06-24 12:40:44.680170059,-36.0,17.0,50.0
1904-01-01 00:14:22.676481059,E4_Acc,2024-06-24 12:40:44.711420059,-36.0,17.0,50.0
1904-01-01 00:14:22.707731059,E4_Acc,2024-06-24 12:40:44.742670059,-36.0,17.0,50.0
1904-01-01 00:14:22.738991073,E4_Acc,2024-06-24 12:40:44.773930073,-36.0,17.0,50.0
1904-01-01 00:14:22.770241073,E4_Acc,2024-06-24 12:40:44.805180073,-36.0,17.0,50.0
1904-01-01 00:14:22.801491073,E4_Acc,2024-06-24 12:40:44.836430073,-36.0,17.0,50.0
1904-01-01 00:14:22.832741073,E4_Acc,2024-06-24 12:40:44.867680073,-36.0,17.0,50.0
1904-01-01 00:14:22.863991073,E4_Acc,2024-06-24 12:40:44.898930073,-36.0,17.0,50.0
1904-01-01 00:14:22.895241073,E4_Acc,2024-06-24 12:40:44.930180073,-36.0,17.0,50.0
1904-01-01 00:14:22.926491073,E4_Acc,2024-06-24 12:40:44.961430073,-36.0,17.0,50.0
1904-01-01 00:14:22.957751086,E4_Acc,2024-06-24 12:40:44.992690086,-36.0,17.0,50.0
1904-01-01 00:14:22.989001086,E4_Acc,2024-06-24 12:40:45.023940086,-36.0,17.0,50.0
1904-01-01 00:14:23.020251086,E4_Acc,2024-06-24 12:40:45.055190086,-36.0,17.0,50.0
1904-01-01 00:14:23.051501086,E4_Acc,2024-06-24 12:40:45.086440086,-36.0,17.0,50.0
1904-01-01 00:14:23.082751086,E4_Acc,2024-06-24 12:40:45.117690086,-36.0,17.0,51.0
1904-01-01 00:14:23.114001086,E4_Acc,2024-06-24 12:40:45.148940086,-36.0,17.0,50.0
1904-01-01 00:14:23.145251086,E4_Acc,2024-06-24 12:40:45.180190086,-36.0,17.0,50.0
1904-01-01 00:14:23.176511100,E4_Acc,2024-06-24 12:40:45.211450100,-36.0,18.0,50.0
1904-01-01 00:14:23.207761100,E4_Acc,2024-06-24 12:40:45.242700100,-36.0,18.0,50.0
1904-01-01 00:14:23.239011100,E4_Acc,2024-06-24 12:40:45.273950100,-36.0,18.0,50.0
1904-01-01 00:14:23.270261100,E4_Acc,2024-06-24 12:40:45.305200100,-36.0,18.0,50.0
1904-01-01 00:14:23.301511100,E4_Acc,2024-06-24 12:40:45.336450100,-36.0,18.0,50.0
1904-01-01 00:14:23.332761100,E4_Acc,2024-06-24 12:40:45.367700100,-36.0,18.0,50.0
1904-01-01 00:14:23.364011100,E4_Acc,2024-06-24 12:40:45.398950100,-36.0,17.0,50.0
1904-01-01 00:14:23.395271114,E4_Acc,2024-06-24 12:40:45.430210114,-36.0,18.0,50.0
1904-01-01 00:14:23.426521114,E4_Acc,2024-06-24 12:40:45.461460114,-36.0,18.0,50.0
1904-01-01 00:14:23.457771114,E4_Acc,2024-06-24 12:40:45.492710114,-36.0,18.0,50.0
1904-01-01 00:14:23.489021114,E4_Acc,2024-06-24 12:40:45.523960114,-36.0,17.0,50.0
1904-01-01 00:14:23.520271114,E4_Acc,2024-06-24 12:40:45.555210114,-36.0,18.0,50.0
1904-01-01 00:14:23.551521114,E4_Acc,2024-06-24 12:40:45.586460114,-36.0,18.0,50.0
1904-01-01 00:14:23.582771114,E4_Acc,2024-06-24 12:40:45.617710114,-35.0,18.0,50.0
1904-01-01 00:14:23.614030889,E4_Acc,2024-06-24 12:40:45.648969889,-36.0,18.0,50.0
1904-01-01 00:14:23.645280889,E4_Acc,2024-06-24 12:40:45.680219889,-36.0,17.0,50.0
1904-01-01 00:14:23.676530889,E4_Acc,2024-06-24 12:40:45.711469889,-36.0,18.0,50.0
1904-01-01 00:14:23.707780889,E4_Acc,2024-06-24 12:40:45.742719889,-36.0,18.0,50.0
1904-01-01 00:14:23.739030889,E4_Acc,2024-06-24 12:40:45.773969889,-36.0,18.0,50.0
1904-01-01 00:14:23.770280889,E4_Acc,2024-06-24 12:40:45.805219889,-36.0,18.0,50.0
1904-01-01 00:14:23.801540902,E4_Acc,2024-06-24 12:40:45.836479902,-36.0,17.0,50.0
1904-01-01 00:14:23.832790902,E4_Acc,2024-06-24 12:40:45.867729902,-35.0,17.0,50.0
1904-01-01 00:14:23.864040902,E4_Acc,2024-06-24 12:40:45.898979902,-36.0,18.0,50.0
1904-01-01 00:14:23.895290902,E4_Acc,2024-06-24 12:40:45.930229902,-36.0,18.0,51.0
1904-01-01 00:14:23.926540902,E4_Acc,2024-06-24 12:40:45.961479902,-36.0,17.0,51.0
1904-01-01 00:14:23.957790902,E4_Acc,2024-06-24 12:40:45.992729902,-35.0,18.0,52.0
1904-01-01 00:14:23.989040902,E4_Acc,2024-06-24 12:40:46.023979902,-35.0,18.0,52.0
1904-01-01 00:14:24.020300916,E4_Acc,2024-06-24 12:40:46.055239916,-35.0,18.0,51.0
1904-01-01 00:14:24.051550916,E4_Acc,2024-06-24 12:40:46.086489916,-36.0,18.0,49.0
1904-01-01 00:14:24.082800916,E4_Acc,2024-06-24 12:40:46.117739916,-36.0,17.0,49.0
1904-01-01 00:14:24.114050916,E4_Acc,2024-06-24 12:40:46.148989916,-36.0,17.0,50.0
1904-01-01 00:14:24.145300916,E4_Acc,2024-06-24 12:40:46.180239916,-35.0,18.0,49.0
1904-01-01 00:14:24.176550916,E4_Acc,2024-06-24 12:40:46.211489916,-36.0,18.0,49.0
1904-01-01 00:14:24.207800916,E4_Acc,2024-06-24 12:40:46.242739916,-36.0,18.0,49.0
1904-01-01 00:14:24.239060929,E4_Acc,2024-06-24 12:40:46.273999929,-36.0,18.0,49.0
1904-01-01 00:14:24.270310929,E4_Acc,2024-06-24 12:40:46.305249929,-36.0,19.0,48.0
1904-01-01 00:14:24.301560929,E4_Acc,2024-06-24 12:40:46.336499929,-36.0,20.0,49.0
1904-01-01 00:14:24.332810929,E4_Acc,2024-06-24 12:40:46.367749929,-36.0,20.0,50.0
1904-01-01 00:14:24.364060929,E4_Acc,2024-06-24 12:40:46.398999929,-36.0,19.0,49.0
1904-01-01 00:14:24.395310929,E4_Acc,2024-06-24 12:40:46.430249929,-36.0,19.0,50.0
1904-01-01 00:14:24.426560929,E4_Acc,2024-06-24 12:40:46.461499929,-36.0,19.0,50.0
1904-01-01 00:14:24.457820943,E4_Acc,2024-06-24 12:40:46.492759943,-36.0,19.0,49.0
1904-01-01 00:14:24.489070943,E4_Acc,2024-06-24 12:40:46.524009943,-36.0,19.0,49.0
1904-01-01 00:14:24.520320943,E4_Acc,2024-06-24 12:40:46.555259943,-36.0,19.0,49.0
1904-01-01 00:14:24.551570943,E4_Acc,2024-06-24 12:40:46.586509943,-36.0,19.0,49.0
1904-01-01 00:14:24.582820943,E4_Acc,2024-06-24 12:40:46.617759943,-36.0,19.0,49.0
1904-01-01 00:14:24.614070943,E4_Acc,2024-06-24 12:40:46.649009943,-37.0,19.0,50.0
1904-01-01 00:14:24.645320943,E4_Acc,2024-06-24 12:40:46.680259943,-36.0,20.0,49.0
1904-01-01 00:14:24.676580957,E4_Acc,2024-06-24 12:40:46.711519957,-36.0,19.0,50.0
1904-01-01 00:14:24.707830957,E4_Acc,2024-06-24 12:40:46.742769957,-37.0,19.0,49.0
1904-01-01 00:14:24.739080957,E4_Acc,2024-06-24 12:40:46.774019957,-37.0,19.0,49.0
1904-01-01 00:14:24.770330957,E4_Acc,2024-06-24 12:40:46.805269957,-37.0,19.0,50.0
1904-01-01 00:14:24.801580957,E4_Acc,2024-06-24 12:40:46.836519957,-37.0,19.0,49.0
1904-01-01 00:14:24.832830957,E4_Acc,2024-06-24 12:40:46.867769957,-37.0,18.0,48.0
1904-01-01 00:14:24.864080957,E4_Acc,2024-06-24 12:40:46.899019957,-38.0,17.0,47.0
1904-01-01 00:14:24.895340970,E4_Acc,2024-06-24 12:40:46.930279970,-40.0,18.0,50.0
1904-01-01 00:14:24.926590970,E4_Acc,2024-06-24 12:40:46.961529970,-39.0,17.0,50.0
1904-01-01 00:14:24.957840970,E4_Acc,2024-06-24 12:40:46.992779970,-37.0,17.0,49.0
1904-01-01 00:14:24.989090970,E4_Acc,2024-06-24 12:40:47.024029970,-37.0,18.0,47.0
1904-01-01 00:14:25.020340970,E4_Acc,2024-06-24 12:40:47.055279970,-37.0,18.0,48.0
1904-01-01 00:14:25.051590970,E4_Acc,2024-06-24 12:40:47.086529970,-37.0,20.0,47.0
1904-01-01 00:14:25.082840970,E4_Acc,2024-06-24 12:40:47.117779970,-38.0,20.0,50.0
1904-01-01 00:14:25.114100984,E4_Acc,2024-06-24 12:40:47.149039984,-39.0,20.0,51.0
1904-01-01 00:14:25.145350984,E4_Acc,2024-06-24 12:40:47.180289984,-37.0,20.0,46.0
1904-01-01 00:14:25.176600984,E4_Acc,2024-06-24 12:40:47.211539984,-35.0,23.0,50.0
1904-01-01 00:14:25.207850984,E4_Acc,2024-06-24 12:40:47.242789984,-33.0,22.0,51.0
1904-01-01 00:14:25.239100984,E4_Acc,2024-06-24 12:40:47.274039984,-40.0,22.0,47.0
1904-01-01 00:14:25.270350984,E4_Acc,2024-06-24 12:40:47.305289984,-39.0,23.0,49.0
1904-01-01 00:14:25.301600984,E4_Acc,2024-06-24 12:40:47.336539984,-37.0,25.0,48.0
1904-01-01 00:14:25.332860997,E4_Acc,2024-06-24 12:40:47.367799997,-38.0,24.0,41.0
1904-01-01 00:14:25.364110997,E4_Acc,2024-06-24 12:40:47.399049997,-38.0,22.0,41.0
1904-01-01 00:14:25.395360997,E4_Acc,2024-06-24 12:40:47.430299997,-39.0,21.0,44.0
1904-01-01 00:14:25.426610997,E4_Acc,2024-06-24 12:40:47.461549997,-39.0,20.0,47.0
1904-01-01 00:14:25.457860997,E4_Acc,2024-06-24 12:40:47.492799997,-38.0,20.0,48.0
1904-01-01 00:14:25.489110997,E4_Acc,2024-06-24 12:40:47.524049997,-36.0,19.0,49.0
1904-01-01 00:14:25.520360997,E4_Acc,2024-06-24 12:40:47.555299997,-36.0,20.0,49.0
1904-01-01 00:14:25.551621011,E4_Acc,2024-06-24 12:40:47.586560011,-37.0,20.0,50.0
1904-01-01 00:14:25.582871011,E4_Acc,2024-06-24 12:40:47.617810011,-38.0,20.0,50.0
1904-01-01 00:14:25.614121011,E4_Acc,2024-06-24 12:40:47.649060011,-38.0,20.0,50.0
1904-01-01 00:14:25.645371011,E4_Acc,2024-06-24 12:40:47.680310011,-37.0,19.0,49.0
1904-01-01 00:14:25.676621011,E4_Acc,2024-06-24 12:40:47.711560011,-37.0,18.0,49.0
1904-01-01 00:14:25.707871011,E4_Acc,2024-06-24 12:40:47.742810011,-37.0,18.0,48.0
1904-01-01 00:14:25.739121011,E4_Acc,2024-06-24 12:40:47.774060011,-37.0,18.0,48.0
1904-01-01 00:14:25.770381024,E4_Acc,2024-06-24 12:40:47.805320024,-37.0,17.0,49.0
1904-01-01 00:14:25.801631024,E4_Acc,2024-06-24 12:40:47.836570024,-37.0,17.0,49.0
1904-01-01 00:14:25.832881024,E4_Acc,2024-06-24 12:40:47.867820024,-37.0,17.0,48.0
1904-01-01 00:14:25.864131024,E4_Acc,2024-06-24 12:40:47.899070024,-38.0,17.0,48.0
1904-01-01 00:14:25.895381024,E4_Acc,2024-06-24 12:40:47.930320024,-38.0,16.0,48.0
1904-01-01 00:14:25.926631024,E4_Acc,2024-06-24 12:40:47.961570024,-38.0,18.0,50.0
1904-01-01 00:14:25.957881024,E4_Acc,2024-06-24 12:40:47.992820024,-36.0,18.0,50.0
1904-01-01 00:14:25.989141038,E4_Acc,2024-06-24 12:40:48.024080038,-37.0,19.0,50.0
1904-01-01 00:14:26.020391038,E4_Acc,2024-06-24 12:40:48.055330038,-39.0,19.0,49.0
1904-01-01 00:14:26.051641038,E4_Acc,2024-06-24 12:40:48.086580038,-38.0,18.0,48.0
1904-01-01 00:14:26.082891038,E4_Acc,2024-06-24 12:40:48.117830038,-38.0,19.0,48.0
1904-01-01 00:14:26.114141038,E4_Acc,2024-06-24 12:40:48.149080038,-39.0,19.0,47.0
1904-01-01 00:14:26.145391038,E4_Acc,2024-06-24 12:40:48.180330038,-40.0,17.0,45.0
1904-01-01 00:14:26.176651052,E4_Acc,2024-06-24 12:40:48.211590052,-41.0,17.0,45.0
1904-01-01 00:14:26.207901052,E4_Acc,2024-06-24 12:40:48.242840052,-40.0,18.0,48.0
1904-01-01 00:14:26.239151052,E4_Acc,2024-06-24 12:40:48.274090052,-39.0,18.0,49.0
1904-01-01 00:14:26.270401052,E4_Acc,2024-06-24 12:40:48.305340052,-40.0,18.0,47.0
1904-01-01 00:14:26.301651052,E4_Acc,2024-06-24 12:40:48.336590052,-40.0,18.0,48.0
1904-01-01 00:14:26.332901052,E4_Acc,2024-06-24 12:40:48.367840052,-39.0,16.0,48.0
1904-01-01 00:14:26.364151052,E4_Acc,2024-06-24 12:40:48.399090052,-39.0,16.0,48.0
1904-01-01 00:14:26.395411065,E4_Acc,2024-06-24 12:40:48.430350065,-39.0,16.0,47.0
1904-01-01 00:14:26.426661065,E4_Acc,2024-06-24 12:40:48.461600065,-39.0,15.0,47.0
1904-01-01 00:14:26.457911065,E4_Acc,2024-06-24 12:40:48.492850065,-40.0,15.0,47.0
1904-01-01 00:14:26.489161064,E4_Acc,2024-06-24 12:40:48.524100064,-41.0,15.0,48.0
1904-01-01 00:14:26.520411065,E4_Acc,2024-06-24 12:40:48.555350065,-41.0,15.0,48.0
1904-01-01 00:14:26.551661065,E4_Acc,2024-06-24 12:40:48.586600065,-41.0,16.0,48.0
1904-01-01 00:14:26.582911065,E4_Acc,2024-06-24 12:40:48.617850065,-41.0,17.0,49.0
1904-01-01 00:14:26.614171079,E4_Acc,2024-06-24 12:40:48.649110079,-41.0,16.0,49.0
1904-01-01 00:14:26.645421079,E4_Acc,2024-06-24 12:40:48.680360079,-40.0,16.0,49.0
1904-01-01 00:14:26.676671079,E4_Acc,2024-06-24 12:40:48.711610079,-39.0,16.0,48.0
1904-01-01 00:14:26.707921079,E4_Acc,2024-06-24 12:40:48.742860079,-39.0,16.0,48.0
1904-01-01 00:14:26.739171079,E4_Acc,2024-06-24 12:40:48.774110079,-40.0,16.0,48.0
1904-01-01 00:14:26.770421079,E4_Acc,2024-06-24 12:40:48.805360079,-40.0,15.0,49.0
1904-01-01 00:14:26.801671079,E4_Acc,2024-06-24 12:40:48.836610079,-39.0,14.0,48.0
1904-01-01 00:14:26.832931092,E4_Acc,2024-06-24 12:40:48.867870092,-38.0,14.0,48.0
1904-01-01 00:14:26.864181092,E4_Acc,2024-06-24 12:40:48.899120092,-38.0,14.0,47.0
1904-01-01 00:14:26.895431092,E4_Acc,2024-06-24 12:40:48.930370092,-38.0,15.0,47.0
1904-01-01 00:14:26.926681092,E4_Acc,2024-06-24 12:40:48.961620092,-38.0,14.0,48.0
1904-01-01 00:14:26.957931092,E4_Acc,2024-06-24 12:40:48.992870092,-39.0,14.0,48.0
1904-01-01 00:14:26.989181092,E4_Acc,2024-06-24 12:40:49.024120092,-40.0,15.0,49.0
1904-01-01 00:14:27.020431092,E4_Acc,2024-06-24 12:40:49.055370092,-39.0,15.0,50.0
1904-01-01 00:14:27.051691106,E4_Acc,2024-06-24 12:40:49.086630106,-39.0,14.0,50.0
1904-01-01 00:14:27.082941106,E4_Acc,2024-06-24 12:40:49.117880106,-38.0,14.0,49.0
1904-01-01 00:14:27.114191106,E4_Acc,2024-06-24 12:40:49.149130106,-38.0,14.0,49.0
1904-01-01 00:14:27.145441106,E4_Acc,2024-06-24 12:40:49.180380106,-38.0,14.0,48.0
1904-01-01 00:14:27.176691106,E4_Acc,2024-06-24 12:40:49.211630106,-39.0,14.0,48.0
1904-01-01 00:14:27.207941106,E4_Acc,2024-06-24 12:40:49.242880106,-39.0,15.0,49.0
1904-01-01 00:14:27.239191106,E4_Acc,2024-06-24 12:40:49.274130106,-40.0,15.0,49.0
1904-01-01 00:14:27.270450881,E4_Acc,2024-06-24 12:40:49.305389881,-40.0,16.0,49.0
1904-01-01 00:14:27.301700881,E4_Acc,2024-06-24 12:40:49.336639881,-39.0,15.0,49.0
1904-01-01 00:14:27.332950881,E4_Acc,2024-06-24 12:40:49.367889881,-40.0,15.0,49.0
1904-01-01 00:14:27.364200881,E4_Acc,2024-06-24 12:40:49.399139881,-39.0,15.0,49.0
1904-01-01 00:14:27.395450881,E4_Acc,2024-06-24 12:40:49.430389881,-39.0,15.0,49.0
1904-01-01 00:14:27.426700881,E4_Acc,2024-06-24 12:40:49.461639881,-40.0,15.0,49.0
1904-01-01 00:14:27.457950881,E4_Acc,2024-06-24 12:40:49.492889881,-39.0,15.0,49.0
1904-01-01 00:14:27.489210895,E4_Acc,2024-06-24 12:40:49.524149895,-39.0,15.0,49.0
1904-01-01 00:14:27.520460895,E4_Acc,2024-06-24 12:40:49.555399895,-39.0,15.0,49.0
1904-01-01 00:14:27.551710895,E4_Acc,2024-06-24 12:40:49.586649895,-39.0,15.0,48.0
1904-01-01 00:14:27.582960895,E4_Acc,2024-06-24 12:40:49.617899895,-39.0,15.0,48.0
1904-01-01 00:14:27.614210895,E4_Acc,2024-06-24 12:40:49.649149895,-39.0,15.0,49.0
1904-01-01 00:14:27.645460895,E4_Acc,2024-06-24 12:40:49.680399895,-39.0,15.0,48.0
