Seconds,Stream,E4_Seconds,AccX,AccY,AccZ
1904-01-01 00:12:41.098976888,E4_Acc,2024-06-25 12:45:39.041349888,-40.0,44.0,-24.0
1904-01-01 00:12:41.130226888,E4_Acc,2024-06-25 12:45:39.072599888,-40.0,44.0,-24.0
1904-01-01 00:12:41.161476888,E4_Acc,2024-06-25 12:45:39.103849888,-40.0,44.0,-24.0
1904-01-01 00:12:41.192736901,E4_Acc,2024-06-25 12:45:39.135109901,-40.0,44.0,-24.0
1904-01-01 00:12:41.223986901,E4_Acc,2024-06-25 12:45:39.166359901,-40.0,44.0,-24.0
1904-01-01 00:12:41.255236901,E4_Acc,2024-06-25 12:45:39.197609901,-40.0,44.0,-24.0
1904-01-01 00:12:41.286486901,E4_Acc,2024-06-25 12:45:39.228859901,-40.0,44.0,-24.0
1904-01-01 00:12:41.317736900,E4_Acc,2024-06-25 12:45:39.260109900,-40.0,44.0,-24.0
1904-01-01 00:12:41.348986901,E4_Acc,2024-06-25 12:45:39.291359901,-39.0,44.0,-24.0
1904-01-01 00:12:41.380236901,E4_Acc,2024-06-25 12:45:39.322609901,-40.0,44.0,-24.0
1904-01-01 00:12:41.411496915,E4_Acc,2024-06-25 12:45:39.353869915,-40.0,44.0,-24.0
1904-01-01 00:12:41.442746915,E4_Acc,2024-06-25 12:45:39.385119915,-40.0,44.0,-24.0
1904-01-01 00:12:41.473996915,E4_Acc,2024-06-25 12:45:39.416369915,-40.0,44.0,-24.0
1904-01-01 00:12:41.505246915,E4_Acc,2024-06-25 12:45:39.447619915,-40.0,44.0,-24.0
1904-01-01 00:12:41.536496915,E4_Acc,2024-06-25 12:45:39.478869915,-40.0,44.0,-24.0
1904-01-01 00:12:41.567746915,E4_Acc,2024-06-25 12:45:39.510119915,-40.0,44.0,-24.0
1904-01-01 00:12:41.598996915,E4_Acc,2024-06-25 12:45:39.541369915,-40.0,44.0,-24.0
1904-01-01 00:12:41.630256929,E4_Acc,2024-06-25 12:45:39.572629929,-40.0,44.0,-24.0
1904-01-01 00:12:41.661506929,E4_Acc,2024-06-25 12:45:39.603879929,-40.0,44.0,-24.0
1904-01-01 00:12:41.692756929,E4_Acc,2024-06-25 12:45:39.635129929,-40.0,44.0,-24.0
1904-01-01 00:12:41.724006929,E4_Acc,2024-06-25 12:45:39.666379929,-40.0,44.0,-24.0
1904-01-01 00:12:41.755256929,E4_Acc,2024-06-25 12:45:39.697629929,-40.0,44.0,-24.0
1904-01-01 00:12:41.786506929,E4_Acc,2024-06-25 12:45:39.728879929,-40.0,44.0,-24.0
1904-01-01 00:12:41.817756929,E4_Acc,2024-06-25 12:45:39.760129929,-39.0,44.0,-24.0
1904-01-01 00:12:41.849016942,E4_Acc,2024-06-25 12:45:39.791389942,-40.0,44.0,-24.0
1904-01-01 00:12:41.880266942,E4_Acc,2024-06-25 12:45:39.822639942,-40.0,44.0,-24.0
1904-01-01 00:12:41.911516942,E4_Acc,2024-06-25 12:45:39.853889942,-40.0,44.0,-24.0
1904-01-01 00:12:41.942766942,E4_Acc,2024-06-25 12:45:39.885139942,-40.0,44.0,-24.0
1904-01-01 00:12:41.974016942,E4_Acc,2024-06-25 12:45:39.916389942,-40.0,44.0,-24.0
1904-01-01 00:12:42.005266942,E4_Acc,2024-06-25 12:45:39.947639942,-40.0,44.0,-24.0
1904-01-01 00:12:42.036516942,E4_Acc,2024-06-25 12:45:39.978889942,-40.0,44.0,-24.0
1904-01-01 00:12:42.067776956,E4_Acc,2024-06-25 12:45:40.010149956,-39.0,44.0,-23.0
1904-01-01 00:12:42.099026956,E4_Acc,2024-06-25 12:45:40.041399956,-39.0,44.0,-24.0
1904-01-01 00:12:42.130276956,E4_Acc,2024-06-25 12:45:40.072649956,-40.0,44.0,-24.0
1904-01-01 00:12:42.161526956,E4_Acc,2024-06-25 12:45:40.103899956,-41.0,44.0,-24.0
1904-01-01 00:12:42.192776956,E4_Acc,2024-06-25 12:45:40.135149956,-40.0,44.0,-24.0
1904-01-01 00:12:42.224026956,E4_Acc,2024-06-25 12:45:40.166399956,-39.0,44.0,-24.0
1904-01-01 00:12:42.255276956,E4_Acc,2024-06-25 12:45:40.197649956,-39.0,44.0,-23.0
1904-01-01 00:12:42.286536969,E4_Acc,2024-06-25 12:45:40.228909969,-40.0,44.0,-24.0
1904-01-01 00:12:42.317786969,E4_Acc,2024-06-25 12:45:40.260159969,-40.0,44.0,-24.0
1904-01-01 00:12:42.349036969,E4_Acc,2024-06-25 12:45:40.291409969,-40.0,44.0,-24.0
1904-01-01 00:12:42.380286969,E4_Acc,2024-06-25 12:45:40.322659969,-40.0,44.0,-24.0
1904-01-01 00:12:42.411536969,E4_Acc,2024-06-25 12:45:40.353909969,-40.0,44.0,-24.0
1904-01-01 00:12:42.442786969,E4_Acc,2024-06-25 12:45:40.385159969,-40.0,44.0,-24.0
1904-01-01 00:12:42.474036969,E4_Acc,2024-06-25 12:45:40.416409969,-40.0,44.0,-24.0
1904-01-01 00:12:42.505296983,E4_Acc,2024-06-25 12:45:40.447669983,-40.0,44.0,-24.0
1904-01-01 00:12:42.536546983,E4_Acc,2024-06-25 12:45:40.478919983,-40.0,44.0,-24.0
1904-01-01 00:12:42.567796983,E4_Acc,2024-06-25 12:45:40.510169983,-40.0,44.0,-24.0
1904-01-01 00:12:42.599046983,E4_Acc,2024-06-25 12:45:40.541419983,-40.0,44.0,-24.0
1904-01-01 00:12:42.630296983,E4_Acc,2024-06-25 12:45:40.572669983,-41.0,44.0,-24.0
1904-01-01 00:12:42.661546983,E4_Acc,2024-06-25 12:45:40.603919983,-40.0,44.0,-23.0
1904-01-01 00:12:42.692796983,E4_Acc,2024-06-25 12:45:40.635169983,-39.0,44.0,-24.0
1904-01-01 00:12:42.724056996,E4_Acc,2024-06-25 12:45:40.666429996,-40.0,44.0,-24.0
1904-01-01 00:12:42.755306996,E4_Acc,2024-06-25 12:45:40.697679996,-40.0,44.0,-24.0
1904-01-01 00:12:42.786556996,E4_Acc,2024-06-25 12:45:40.728929996,-40.0,44.0,-24.0
1904-01-01 00:12:42.817806996,E4_Acc,2024-06-25 12:45:40.760179996,-40.0,44.0,-24.0
1904-01-01 00:12:42.849056996,E4_Acc,2024-06-25 12:45:40.791429996,-40.0,44.0,-24.0
1904-01-01 00:12:42.880306996,E4_Acc,2024-06-25 12:45:40.822679996,-40.0,44.0,-24.0
1904-01-01 00:12:42.911556996,E4_Acc,2024-06-25 12:45:40.853929996,-40.0,44.0,-24.0
1904-01-01 00:12:42.942817010,E4_Acc,2024-06-25 12:45:40.885190010,-40.0,44.0,-24.0
1904-01-01 00:12:42.974067010,E4_Acc,2024-06-25 12:45:40.916440010,-40.0,44.0,-23.0
1904-01-01 00:12:43.005317010,E4_Acc,2024-06-25 12:45:40.947690010,-40.0,44.0,-24.0
1904-01-01 00:12:43.036567010,E4_Acc,2024-06-25 12:45:40.978940010,-40.0,44.0,-24.0
1904-01-01 00:12:43.067817010,E4_Acc,2024-06-25 12:45:41.010190010,-40.0,44.0,-24.0
1904-01-01 00:12:43.099067010,E4_Acc,2024-06-25 12:45:41.041440010,-40.0,44.0,-24.0
1904-01-01 00:12:43.130317010,E4_Acc,2024-06-25 12:45:41.072690010,-40.0,44.0,-24.0
1904-01-01 00:12:43.161577024,E4_Acc,2024-06-25 12:45:41.103950024,-40.0,44.0,-24.0
1904-01-01 00:12:43.192827024,E4_Acc,2024-06-25 12:45:41.135200024,-40.0,44.0,-24.0
1904-01-01 00:12:43.224077024,E4_Acc,2024-06-25 12:45:41.166450024,-40.0,44.0,-24.0
1904-01-01 00:12:43.255327024,E4_Acc,2024-06-25 12:45:41.197700024,-40.0,44.0,-24.0
1904-01-01 00:12:43.286577024,E4_Acc,2024-06-25 12:45:41.228950024,-39.0,44.0,-24.0
1904-01-01 00:12:43.317827023,E4_Acc,2024-06-25 12:45:41.260200023,-40.0,44.0,-24.0
1904-01-01 00:12:43.349087037,E4_Acc,2024-06-25 12:45:41.291460037,-41.0,44.0,-24.0
1904-01-01 00:12:43.380337037,E4_Acc,2024-06-25 12:45:41.322710037,-40.0,44.0,-24.0
1904-01-01 00:12:43.411587037,E4_Acc,2024-06-25 12:45:41.353960037,-40.0,44.0,-23.0
1904-01-01 00:12:43.442837037,E4_Acc,2024-06-25 12:45:41.385210037,-39.0,44.0,-23.0
1904-01-01 00:12:43.474087037,E4_Acc,2024-06-25 12:45:41.416460037,-39.0,44.0,-23.0
1904-01-01 00:12:43.505337037,E4_Acc,2024-06-25 12:45:41.447710037,-40.0,44.0,-24.0
1904-01-01 00:12:43.536587037,E4_Acc,2024-06-25 12:45:41.478960037,-41.0,44.0,-24.0
1904-01-01 00:12:43.567847051,E4_Acc,2024-06-25 12:45:41.510220051,-40.0,44.0,-24.0
1904-01-01 00:12:43.599097051,E4_Acc,2024-06-25 12:45:41.541470051,-40.0,44.0,-24.0
1904-01-01 00:12:43.630347051,E4_Acc,2024-06-25 12:45:41.572720051,-40.0,44.0,-24.0
1904-01-01 00:12:43.661597051,E4_Acc,2024-06-25 12:45:41.603970051,-40.0,44.0,-24.0
1904-01-01 00:12:43.692847051,E4_Acc,2024-06-25 12:45:41.635220051,-39.0,44.0,-23.0
1904-01-01 00:12:43.724097051,E4_Acc,2024-06-25 12:45:41.666470051,-40.0,44.0,-24.0
1904-01-01 00:12:43.755347051,E4_Acc,2024-06-25 12:45:41.697720051,-40.0,44.0,-24.0
1904-01-01 00:12:43.786607064,E4_Acc,2024-06-25 12:45:41.728980064,-41.0,44.0,-24.0
1904-01-01 00:12:43.817857064,E4_Acc,2024-06-25 12:45:41.760230064,-40.0,44.0,-24.0
1904-01-01 00:12:43.849107064,E4_Acc,2024-06-25 12:45:41.791480064,-39.0,44.0,-24.0
1904-01-01 00:12:43.880357064,E4_Acc,2024-06-25 12:45:41.822730064,-40.0,44.0,-24.0
1904-01-01 00:12:43.911607064,E4_Acc,2024-06-25 12:45:41.853980064,-40.0,44.0,-24.0
1904-01-01 00:12:43.942857064,E4_Acc,2024-06-25 12:45:41.885230064,-40.0,44.0,-24.0
1904-01-01 00:12:43.974107064,E4_Acc,2024-06-25 12:45:41.916480064,-40.0,44.0,-24.0
1904-01-01 00:12:44.005367078,E4_Acc,2024-06-25 12:45:41.947740078,-40.0,44.0,-23.0
1904-01-01 00:12:44.036617078,E4_Acc,2024-06-25 12:45:41.978990078,-40.0,44.0,-24.0
1904-01-01 00:12:44.067867078,E4_Acc,2024-06-25 12:45:42.010240078,-40.0,44.0,-24.0
1904-01-01 00:12:44.099117078,E4_Acc,2024-06-25 12:45:42.041490078,-40.0,44.0,-24.0
1904-01-01 00:12:44.130367078,E4_Acc,2024-06-25 12:45:42.072740078,-40.0,44.0,-23.0
1904-01-01 00:12:44.161617078,E4_Acc,2024-06-25 12:45:42.103990078,-40.0,44.0,-24.0
1904-01-01 00:12:44.192867078,E4_Acc,2024-06-25 12:45:42.135240078,-40.0,44.0,-24.0
1904-01-01 00:12:44.224127092,E4_Acc,2024-06-25 12:45:42.166500092,-40.0,44.0,-24.0
1904-01-01 00:12:44.255377092,E4_Acc,2024-06-25 12:45:42.197750092,-40.0,44.0,-23.0
1904-01-01 00:12:44.286627092,E4_Acc,2024-06-25 12:45:42.229000092,-40.0,44.0,-24.0
1904-01-01 00:12:44.317877092,E4_Acc,2024-06-25 12:45:42.260250092,-40.0,44.0,-24.0
1904-01-01 00:12:44.349127092,E4_Acc,2024-06-25 12:45:42.291500092,-40.0,44.0,-24.0
1904-01-01 00:12:44.380377092,E4_Acc,2024-06-25 12:45:42.322750092,-40.0,44.0,-24.0
1904-01-01 00:12:44.411627092,E4_Acc,2024-06-25 12:45:42.354000092,-39.0,44.0,-23.0
1904-01-01 00:12:44.442887105,E4_Acc,2024-06-25 12:45:42.385260105,-40.0,44.0,-23.0
1904-01-01 00:12:44.474137105,E4_Acc,2024-06-25 12:45:42.416510105,-41.0,45.0,-24.0
1904-01-01 00:12:44.505387105,E4_Acc,2024-06-25 12:45:42.447760105,-39.0,43.0,-25.0
1904-01-01 00:12:44.536637105,E4_Acc,2024-06-25 12:45:42.479010105,-37.0,45.0,-23.0
1904-01-01 00:12:44.567887104,E4_Acc,2024-06-25 12:45:42.510260104,-40.0,45.0,-23.0
1904-01-01 00:12:44.599137105,E4_Acc,2024-06-25 12:45:42.541510105,-39.0,43.0,-27.0
1904-01-01 00:12:44.630387105,E4_Acc,2024-06-25 12:45:42.572760105,-38.0,44.0,-27.0
1904-01-01 00:12:44.661647119,E4_Acc,2024-06-25 12:45:42.604020119,-39.0,45.0,-23.0
1904-01-01 00:12:44.692897119,E4_Acc,2024-06-25 12:45:42.635270119,-43.0,45.0,-25.0
1904-01-01 00:12:44.724147119,E4_Acc,2024-06-25 12:45:42.666520119,-45.0,46.0,-31.0
1904-01-01 00:12:44.755397119,E4_Acc,2024-06-25 12:45:42.697770119,-44.0,45.0,-26.0
1904-01-01 00:12:44.786647119,E4_Acc,2024-06-25 12:45:42.729020119,-45.0,44.0,-25.0
1904-01-01 00:12:44.817897119,E4_Acc,2024-06-25 12:45:42.760270119,-38.0,42.0,-21.0
1904-01-01 00:12:44.849147119,E4_Acc,2024-06-25 12:45:42.791520119,-38.0,41.0,-22.0
1904-01-01 00:12:44.880406894,E4_Acc,2024-06-25 12:45:42.822779894,-41.0,41.0,-22.0
1904-01-01 00:12:44.911656894,E4_Acc,2024-06-25 12:45:42.854029894,-52.0,42.0,-27.0
1904-01-01 00:12:44.942906894,E4_Acc,2024-06-25 12:45:42.885279894,-54.0,42.0,-25.0
1904-01-01 00:12:44.974156894,E4_Acc,2024-06-25 12:45:42.916529894,-56.0,45.0,-21.0
1904-01-01 00:12:45.005406894,E4_Acc,2024-06-25 12:45:42.947779894,-86.0,63.0,-12.0
1904-01-01 00:12:45.036656894,E4_Acc,2024-06-25 12:45:42.979029894,-69.0,58.0,-7.0
1904-01-01 00:12:45.067906894,E4_Acc,2024-06-25 12:45:43.010279894,-27.0,44.0,12.0
1904-01-01 00:12:45.099166907,E4_Acc,2024-06-25 12:45:43.041539907,-32.0,46.0,12.0
1904-01-01 00:12:45.130416907,E4_Acc,2024-06-25 12:45:43.072789907,-56.0,43.0,1.0
1904-01-01 00:12:45.161666907,E4_Acc,2024-06-25 12:45:43.104039907,-75.0,42.0,-25.0
1904-01-01 00:12:45.192916907,E4_Acc,2024-06-25 12:45:43.135289907,-80.0,35.0,-34.0
1904-01-01 00:12:45.224166907,E4_Acc,2024-06-25 12:45:43.166539907,-75.0,24.0,-34.0
1904-01-01 00:12:45.255416907,E4_Acc,2024-06-25 12:45:43.197789907,-71.0,18.0,-32.0
1904-01-01 00:12:45.286666907,E4_Acc,2024-06-25 12:45:43.229039907,-73.0,12.0,-38.0
1904-01-01 00:12:45.317926921,E4_Acc,2024-06-25 12:45:43.260299921,-68.0,6.0,-41.0
1904-01-01 00:12:45.349176921,E4_Acc,2024-06-25 12:45:43.291549921,-66.0,2.0,-42.0
1904-01-01 00:12:45.380426921,E4_Acc,2024-06-25 12:45:43.322799921,-59.0,-3.0,-41.0
1904-01-01 00:12:45.411676921,E4_Acc,2024-06-25 12:45:43.354049921,-51.0,-9.0,-36.0
1904-01-01 00:12:45.442926921,E4_Acc,2024-06-25 12:45:43.385299921,-34.0,-21.0,-25.0
1904-01-01 00:12:45.474176921,E4_Acc,2024-06-25 12:45:43.416549921,-16.0,-46.0,-17.0
1904-01-01 00:12:45.505426921,E4_Acc,2024-06-25 12:45:43.447799921,-19.0,-48.0,-19.0
1904-01-01 00:12:45.536686935,E4_Acc,2024-06-25 12:45:43.479059935,-33.0,-36.0,-29.0
1904-01-01 00:12:45.567936935,E4_Acc,2024-06-25 12:45:43.510309935,-39.0,-35.0,-32.0
1904-01-01 00:12:45.599186935,E4_Acc,2024-06-25 12:45:43.541559935,-34.0,-34.0,-24.0
1904-01-01 00:12:45.630436935,E4_Acc,2024-06-25 12:45:43.572809935,-18.0,-36.0,-5.0
1904-01-01 00:12:45.661686935,E4_Acc,2024-06-25 12:45:43.604059935,-16.0,-37.0,-1.0
1904-01-01 00:12:45.692936935,E4_Acc,2024-06-25 12:45:43.635309935,-19.0,-41.0,4.0
1904-01-01 00:12:45.724186935,E4_Acc,2024-06-25 12:45:43.666559935,-17.0,-44.0,9.0
1904-01-01 00:12:45.755446948,E4_Acc,2024-06-25 12:45:43.697819948,-26.0,-46.0,-1.0
1904-01-01 00:12:45.786696948,E4_Acc,2024-06-25 12:45:43.729069948,-23.0,-48.0,1.0
1904-01-01 00:12:45.817946948,E4_Acc,2024-06-25 12:45:43.760319948,-24.0,-52.0,0.0
1904-01-01 00:12:45.849196948,E4_Acc,2024-06-25 12:45:43.791569948,-29.0,-53.0,-4.0
1904-01-01 00:12:45.880446948,E4_Acc,2024-06-25 12:45:43.822819948,-30.0,-55.0,-1.0
1904-01-01 00:12:45.911696948,E4_Acc,2024-06-25 12:45:43.854069948,-27.0,-57.0,-1.0
1904-01-01 00:12:45.942946948,E4_Acc,2024-06-25 12:45:43.885319948,-30.0,-57.0,-5.0
1904-01-01 00:12:45.974206962,E4_Acc,2024-06-25 12:45:43.916579962,-33.0,-55.0,-4.0
1904-01-01 00:12:46.005456962,E4_Acc,2024-06-25 12:45:43.947829962,-32.0,-57.0,-4.0
1904-01-01 00:12:46.036706962,E4_Acc,2024-06-25 12:45:43.979079962,-25.0,-56.0,-3.0
1904-01-01 00:12:46.067956962,E4_Acc,2024-06-25 12:45:44.010329962,-24.0,-57.0,-3.0
1904-01-01 00:12:46.099206962,E4_Acc,2024-06-25 12:45:44.041579962,-26.0,-59.0,-7.0
1904-01-01 00:12:46.130456962,E4_Acc,2024-06-25 12:45:44.072829962,-24.0,-60.0,-8.0
1904-01-01 00:12:46.161716975,E4_Acc,2024-06-25 12:45:44.104089975,-15.0,-62.0,-1.0
1904-01-01 00:12:46.192966975,E4_Acc,2024-06-25 12:45:44.135339975,-17.0,-62.0,-4.0
1904-01-01 00:12:46.224216975,E4_Acc,2024-06-25 12:45:44.166589975,-19.0,-62.0,-9.0
1904-01-01 00:12:46.255466975,E4_Acc,2024-06-25 12:45:44.197839975,-20.0,-61.0,-8.0
1904-01-01 00:12:46.286716975,E4_Acc,2024-06-25 12:45:44.229089975,-18.0,-61.0,-5.0
1904-01-01 00:12:46.317966975,E4_Acc,2024-06-25 12:45:44.260339975,-18.0,-62.0,-9.0
1904-01-01 00:12:46.349216975,E4_Acc,2024-06-25 12:45:44.291589975,-15.0,-62.0,-7.0
1904-01-01 00:12:46.380476989,E4_Acc,2024-06-25 12:45:44.322849989,-14.0,-62.0,-7.0
1904-01-01 00:12:46.411726989,E4_Acc,2024-06-25 12:45:44.354099989,-17.0,-64.0,-11.0
1904-01-01 00:12:46.442976989,E4_Acc,2024-06-25 12:45:44.385349989,-15.0,-64.0,-10.0
1904-01-01 00:12:46.474226989,E4_Acc,2024-06-25 12:45:44.416599989,-15.0,-66.0,-6.0
1904-01-01 00:12:46.505476989,E4_Acc,2024-06-25 12:45:44.447849989,-9.0,-66.0,-3.0
1904-01-01 00:12:46.536726989,E4_Acc,2024-06-25 12:45:44.479099989,-6.0,-66.0,-3.0
1904-01-01 00:12:46.567976988,E4_Acc,2024-06-25 12:45:44.510349988,-8.0,-64.0,-7.0
1904-01-01 00:12:46.599237003,E4_Acc,2024-06-25 12:45:44.541610003,-15.0,-64.0,-6.0
1904-01-01 00:12:46.630487003,E4_Acc,2024-06-25 12:45:44.572860003,-10.0,-64.0,-3.0
1904-01-01 00:12:46.661737003,E4_Acc,2024-06-25 12:45:44.604110003,-19.0,-63.0,-2.0
1904-01-01 00:12:46.692987003,E4_Acc,2024-06-25 12:45:44.635360003,-24.0,-63.0,-3.0
1904-01-01 00:12:46.724237003,E4_Acc,2024-06-25 12:45:44.666610003,-21.0,-61.0,2.0
1904-01-01 00:12:46.755487003,E4_Acc,2024-06-25 12:45:44.697860003,-22.0,-59.0,2.0
1904-01-01 00:12:46.786737003,E4_Acc,2024-06-25 12:45:44.729110003,-19.0,-56.0,0.0
1904-01-01 00:12:46.817997016,E4_Acc,2024-06-25 12:45:44.760370016,-24.0,-53.0,-6.0
1904-01-01 00:12:46.849247016,E4_Acc,2024-06-25 12:45:44.791620016,-24.0,-53.0,-6.0
1904-01-01 00:12:46.880497016,E4_Acc,2024-06-25 12:45:44.822870016,-26.0,-56.0,-14.0
1904-01-01 00:12:46.911747016,E4_Acc,2024-06-25 12:45:44.854120016,-30.0,-58.0,-16.0
1904-01-01 00:12:46.942997016,E4_Acc,2024-06-25 12:45:44.885370016,-31.0,-58.0,-11.0
1904-01-01 00:12:46.974247016,E4_Acc,2024-06-25 12:45:44.916620016,-28.0,-60.0,-5.0
1904-01-01 00:12:47.005497016,E4_Acc,2024-06-25 12:45:44.947870016,-27.0,-62.0,-7.0
1904-01-01 00:12:47.036757030,E4_Acc,2024-06-25 12:45:44.979130030,-28.0,-63.0,-14.0
1904-01-01 00:12:47.068007030,E4_Acc,2024-06-25 12:45:45.010380030,-26.0,-61.0,-11.0
1904-01-01 00:12:47.099257030,E4_Acc,2024-06-25 12:45:45.041630030,-24.0,-59.0,-9.0
1904-01-01 00:12:47.130507030,E4_Acc,2024-06-25 12:45:45.072880030,-23.0,-58.0,-11.0
1904-01-01 00:12:47.161757030,E4_Acc,2024-06-25 12:45:45.104130030,-22.0,-56.0,-12.0
1904-01-01 00:12:47.193007030,E4_Acc,2024-06-25 12:45:45.135380030,-23.0,-58.0,-12.0
1904-01-01 00:12:47.224257030,E4_Acc,2024-06-25 12:45:45.166630030,-22.0,-60.0,-13.0
1904-01-01 00:12:47.255517043,E4_Acc,2024-06-25 12:45:45.197890043,-25.0,-60.0,-13.0
1904-01-01 00:12:47.286767043,E4_Acc,2024-06-25 12:45:45.229140043,-20.0,-61.0,-11.0
1904-01-01 00:12:47.318017043,E4_Acc,2024-06-25 12:45:45.260390043,-22.0,-61.0,-12.0
1904-01-01 00:12:47.349267043,E4_Acc,2024-06-25 12:45:45.291640043,-32.0,-58.0,-16.0
1904-01-01 00:12:47.380517043,E4_Acc,2024-06-25 12:45:45.322890043,-33.0,-55.0,-16.0
1904-01-01 00:12:47.411767043,E4_Acc,2024-06-25 12:45:45.354140043,-34.0,-57.0,-15.0
1904-01-01 00:12:47.443017043,E4_Acc,2024-06-25 12:45:45.385390043,-32.0,-57.0,-12.0
1904-01-01 00:12:47.474277057,E4_Acc,2024-06-25 12:45:45.416650057,-29.0,-56.0,-9.0
1904-01-01 00:12:47.505527057,E4_Acc,2024-06-25 12:45:45.447900057,-16.0,-60.0,0.0
1904-01-01 00:12:47.536777057,E4_Acc,2024-06-25 12:45:45.479150057,-6.0,-63.0,5.0
1904-01-01 00:12:47.568027057,E4_Acc,2024-06-25 12:45:45.510400057,-3.0,-63.0,9.0
1904-01-01 00:12:47.599277057,E4_Acc,2024-06-25 12:45:45.541650057,-9.0,-63.0,7.0
1904-01-01 00:12:47.630527057,E4_Acc,2024-06-25 12:45:45.572900057,-6.0,-63.0,6.0
1904-01-01 00:12:47.661777057,E4_Acc,2024-06-25 12:45:45.604150057,-4.0,-64.0,6.0
1904-01-01 00:12:47.693037070,E4_Acc,2024-06-25 12:45:45.635410070,1.0,-62.0,12.0
1904-01-01 00:12:47.724287070,E4_Acc,2024-06-25 12:45:45.666660070,-5.0,-61.0,14.0
1904-01-01 00:12:47.755537070,E4_Acc,2024-06-25 12:45:45.697910070,-9.0,-65.0,11.0
1904-01-01 00:12:47.786787070,E4_Acc,2024-06-25 12:45:45.729160070,-6.0,-65.0,13.0
1904-01-01 00:12:47.818037070,E4_Acc,2024-06-25 12:45:45.760410070,-18.0,-66.0,14.0
1904-01-01 00:12:47.849287070,E4_Acc,2024-06-25 12:45:45.791660070,-15.0,-65.0,9.0
1904-01-01 00:12:47.880537070,E4_Acc,2024-06-25 12:45:45.822910070,-13.0,-64.0,17.0
1904-01-01 00:12:47.911797084,E4_Acc,2024-06-25 12:45:45.854170084,-14.0,-62.0,33.0
1904-01-01 00:12:47.943047084,E4_Acc,2024-06-25 12:45:45.885420084,-30.0,-61.0,18.0
1904-01-01 00:12:47.974297084,E4_Acc,2024-06-25 12:45:45.916670084,-23.0,-63.0,12.0
1904-01-01 00:12:48.005547084,E4_Acc,2024-06-25 12:45:45.947920084,7.0,-61.0,9.0
1904-01-01 00:12:48.036797084,E4_Acc,2024-06-25 12:45:45.979170084,8.0,-62.0,18.0
1904-01-01 00:12:48.068047084,E4_Acc,2024-06-25 12:45:46.010420084,-2.0,-63.0,16.0
1904-01-01 00:12:48.099297084,E4_Acc,2024-06-25 12:45:46.041670084,-8.0,-65.0,3.0
1904-01-01 00:12:48.130557098,E4_Acc,2024-06-25 12:45:46.072930098,-14.0,-63.0,6.0
1904-01-01 00:12:48.161807098,E4_Acc,2024-06-25 12:45:46.104180098,-7.0,-64.0,15.0
1904-01-01 00:12:48.193057098,E4_Acc,2024-06-25 12:45:46.135430098,-12.0,-64.0,14.0
1904-01-01 00:12:48.224307098,E4_Acc,2024-06-25 12:45:46.166680098,-18.0,-64.0,11.0
1904-01-01 00:12:48.255557098,E4_Acc,2024-06-25 12:45:46.197930098,-14.0,-62.0,13.0
1904-01-01 00:12:48.286807098,E4_Acc,2024-06-25 12:45:46.229180098,-17.0,-63.0,9.0
1904-01-01 00:12:48.318057098,E4_Acc,2024-06-25 12:45:46.260430098,-5.0,-60.0,16.0
1904-01-01 00:12:48.349317111,E4_Acc,2024-06-25 12:45:46.291690111,-3.0,-61.0,16.0
1904-01-01 00:12:48.380567111,E4_Acc,2024-06-25 12:45:46.322940111,-9.0,-63.0,11.0
1904-01-01 00:12:48.411817111,E4_Acc,2024-06-25 12:45:46.354190111,-16.0,-61.0,10.0
1904-01-01 00:12:48.443067111,E4_Acc,2024-06-25 12:45:46.385440111,-11.0,-61.0,14.0
1904-01-01 00:12:48.474317111,E4_Acc,2024-06-25 12:45:46.416690111,-4.0,-60.0,18.0
1904-01-01 00:12:48.505567111,E4_Acc,2024-06-25 12:45:46.447940111,-1.0,-61.0,19.0
1904-01-01 00:12:48.536826886,E4_Acc,2024-06-25 12:45:46.479199886,-7.0,-62.0,17.0
1904-01-01 00:12:48.568076885,E4_Acc,2024-06-25 12:45:46.510449885,-6.0,-64.0,17.0
1904-01-01 00:12:48.599326886,E4_Acc,2024-06-25 12:45:46.541699886,-5.0,-64.0,16.0
1904-01-01 00:12:48.630576886,E4_Acc,2024-06-25 12:45:46.572949886,-11.0,-64.0,7.0
1904-01-01 00:12:48.661826886,E4_Acc,2024-06-25 12:45:46.604199886,-8.0,-64.0,10.0
1904-01-01 00:12:48.693076886,E4_Acc,2024-06-25 12:45:46.635449886,-7.0,-63.0,12.0
1904-01-01 00:12:48.724326886,E4_Acc,2024-06-25 12:45:46.666699886,1.0,-63.0,20.0
1904-01-01 00:12:48.755586900,E4_Acc,2024-06-25 12:45:46.697959900,-1.0,-63.0,21.0
1904-01-01 00:12:48.786836900,E4_Acc,2024-06-25 12:45:46.729209900,-2.0,-63.0,16.0
1904-01-01 00:12:48.818086900,E4_Acc,2024-06-25 12:45:46.760459900,-8.0,-61.0,13.0
1904-01-01 00:12:48.849336900,E4_Acc,2024-06-25 12:45:46.791709900,-9.0,-62.0,11.0
1904-01-01 00:12:48.880586900,E4_Acc,2024-06-25 12:45:46.822959900,-1.0,-62.0,15.0
1904-01-01 00:12:48.911836900,E4_Acc,2024-06-25 12:45:46.854209900,-5.0,-62.0,17.0
1904-01-01 00:12:48.943086900,E4_Acc,2024-06-25 12:45:46.885459900,-7.0,-63.0,16.0
1904-01-01 00:12:48.974346913,E4_Acc,2024-06-25 12:45:46.916719913,-10.0,-63.0,13.0
1904-01-01 00:12:49.005596913,E4_Acc,2024-06-25 12:45:46.947969913,-9.0,-62.0,13.0
1904-01-01 00:12:49.036846913,E4_Acc,2024-06-25 12:45:46.979219913,-13.0,-61.0,11.0
1904-01-01 00:12:49.068096913,E4_Acc,2024-06-25 12:45:47.010469913,-14.0,-63.0,12.0
1904-01-01 00:12:49.099346913,E4_Acc,2024-06-25 12:45:47.041719913,-11.0,-66.0,17.0
1904-01-01 00:12:49.130596913,E4_Acc,2024-06-25 12:45:47.072969913,1.0,-64.0,23.0
1904-01-01 00:12:49.161846913,E4_Acc,2024-06-25 12:45:47.104219913,-9.0,-66.0,3.0
1904-01-01 00:12:49.193106927,E4_Acc,2024-06-25 12:45:47.135479927,-8.0,-64.0,7.0
1904-01-01 00:12:49.224356927,E4_Acc,2024-06-25 12:45:47.166729927,-4.0,-62.0,17.0
1904-01-01 00:12:49.255606927,E4_Acc,2024-06-25 12:45:47.197979927,-12.0,-63.0,16.0
1904-01-01 00:12:49.286856927,E4_Acc,2024-06-25 12:45:47.229229927,-7.0,-65.0,13.0
1904-01-01 00:12:49.318106927,E4_Acc,2024-06-25 12:45:47.260479927,-7.0,-63.0,10.0
1904-01-01 00:12:49.349356927,E4_Acc,2024-06-25 12:45:47.291729927,-6.0,-62.0,19.0
1904-01-01 00:12:49.380606927,E4_Acc,2024-06-25 12:45:47.322979927,-3.0,-62.0,21.0
1904-01-01 00:12:49.411866941,E4_Acc,2024-06-25 12:45:47.354239941,-12.0,-63.0,8.0
1904-01-01 00:12:49.443116941,E4_Acc,2024-06-25 12:45:47.385489941,-11.0,-60.0,18.0
1904-01-01 00:12:49.474366941,E4_Acc,2024-06-25 12:45:47.416739941,-10.0,-62.0,20.0
1904-01-01 00:12:49.505616941,E4_Acc,2024-06-25 12:45:47.447989941,-9.0,-62.0,15.0
1904-01-01 00:12:49.536866941,E4_Acc,2024-06-25 12:45:47.479239941,-3.0,-63.0,14.0
1904-01-01 00:12:49.568116941,E4_Acc,2024-06-25 12:45:47.510489941,-4.0,-63.0,13.0
1904-01-01 00:12:49.599366941,E4_Acc,2024-06-25 12:45:47.541739941,-11.0,-62.0,9.0
1904-01-01 00:12:49.630626954,E4_Acc,2024-06-25 12:45:47.572999954,-14.0,-61.0,10.0
1904-01-01 00:12:49.661876954,E4_Acc,2024-06-25 12:45:47.604249954,-9.0,-62.0,16.0
1904-01-01 00:12:49.693126954,E4_Acc,2024-06-25 12:45:47.635499954,-8.0,-63.0,13.0
1904-01-01 00:12:49.724376954,E4_Acc,2024-06-25 12:45:47.666749954,-5.0,-63.0,15.0
1904-01-01 00:12:49.755626954,E4_Acc,2024-06-25 12:45:47.697999954,-15.0,-67.0,4.0
1904-01-01 00:12:49.786876954,E4_Acc,2024-06-25 12:45:47.729249954,-12.0,-65.0,3.0
1904-01-01 00:12:49.818126954,E4_Acc,2024-06-25 12:45:47.760499954,-7.0,-61.0,12.0
1904-01-01 00:12:49.849386968,E4_Acc,2024-06-25 12:45:47.791759968,-11.0,-59.0,11.0
1904-01-01 00:12:49.880636968,E4_Acc,2024-06-25 12:45:47.823009968,-16.0,-61.0,15.0
1904-01-01 00:12:49.911886968,E4_Acc,2024-06-25 12:45:47.854259968,-8.0,-62.0,14.0
1904-01-01 00:12:49.943136968,E4_Acc,2024-06-25 12:45:47.885509968,-19.0,-66.0,4.0
1904-01-01 00:12:49.974386968,E4_Acc,2024-06-25 12:45:47.916759968,-14.0,-63.0,10.0
1904-01-01 00:12:50.005636968,E4_Acc,2024-06-25 12:45:47.948009968,-14.0,-60.0,13.0
1904-01-01 00:12:50.036886968,E4_Acc,2024-06-25 12:45:47.979259968,-25.0,-63.0,11.0
1904-01-01 00:12:50.068146981,E4_Acc,2024-06-25 12:45:48.010519981,-19.0,-61.0,11.0
1904-01-01 00:12:50.099396981,E4_Acc,2024-06-25 12:45:48.041769981,-16.0,-62.0,10.0
1904-01-01 00:12:50.130646981,E4_Acc,2024-06-25 12:45:48.073019981,-11.0,-64.0,13.0
1904-01-01 00:12:50.161896981,E4_Acc,2024-06-25 12:45:48.104269981,-15.0,-61.0,10.0
1904-01-01 00:12:50.193146981,E4_Acc,2024-06-25 12:45:48.135519981,-16.0,-61.0,5.0
1904-01-01 00:12:50.224396981,E4_Acc,2024-06-25 12:45:48.166769981,-14.0,-60.0,14.0
1904-01-01 00:12:50.255646981,E4_Acc,2024-06-25 12:45:48.198019981,-19.0,-59.0,16.0
1904-01-01 00:12:50.286906995,E4_Acc,2024-06-25 12:45:48.229279995,-28.0,-68.0,-3.0
1904-01-01 00:12:50.318156995,E4_Acc,2024-06-25 12:45:48.260529995,-13.0,-62.0,13.0
1904-01-01 00:12:50.349406995,E4_Acc,2024-06-25 12:45:48.291779995,-12.0,-56.0,21.0
1904-01-01 00:12:50.380656995,E4_Acc,2024-06-25 12:45:48.323029995,-21.0,-63.0,12.0
1904-01-01 00:12:50.411906995,E4_Acc,2024-06-25 12:45:48.354279995,-14.0,-64.0,14.0
1904-01-01 00:12:50.443156995,E4_Acc,2024-06-25 12:45:48.385529995,-9.0,-60.0,16.0
1904-01-01 00:12:50.474406995,E4_Acc,2024-06-25 12:45:48.416779995,-10.0,-63.0,14.0
1904-01-01 00:12:50.505667009,E4_Acc,2024-06-25 12:45:48.448040009,-14.0,-61.0,16.0
1904-01-01 00:12:50.536917009,E4_Acc,2024-06-25 12:45:48.479290009,-17.0,-61.0,13.0
1904-01-01 00:12:50.568167008,E4_Acc,2024-06-25 12:45:48.510540008,-19.0,-62.0,13.0
1904-01-01 00:12:50.599417009,E4_Acc,2024-06-25 12:45:48.541790009,-19.0,-63.0,15.0
1904-01-01 00:12:50.630667009,E4_Acc,2024-06-25 12:45:48.573040009,-15.0,-62.0,17.0
1904-01-01 00:12:50.661917009,E4_Acc,2024-06-25 12:45:48.604290009,-11.0,-61.0,18.0
1904-01-01 00:12:50.693177022,E4_Acc,2024-06-25 12:45:48.635550022,-18.0,-63.0,10.0
1904-01-01 00:12:50.724427022,E4_Acc,2024-06-25 12:45:48.666800022,-10.0,-61.0,14.0
1904-01-01 00:12:50.755677022,E4_Acc,2024-06-25 12:45:48.698050022,0.0,-62.0,15.0
1904-01-01 00:12:50.786927022,E4_Acc,2024-06-25 12:45:48.729300022,-20.0,-61.0,18.0
1904-01-01 00:12:50.818177022,E4_Acc,2024-06-25 12:45:48.760550022,-13.0,-61.0,24.0
1904-01-01 00:12:50.849427022,E4_Acc,2024-06-25 12:45:48.791800022,-21.0,-58.0,17.0
1904-01-01 00:12:50.880677022,E4_Acc,2024-06-25 12:45:48.823050022,-15.0,-57.0,17.0
1904-01-01 00:12:50.911937036,E4_Acc,2024-06-25 12:45:48.854310036,-21.0,-60.0,15.0
1904-01-01 00:12:50.943187036,E4_Acc,2024-06-25 12:45:48.885560036,-24.0,-60.0,12.0
1904-01-01 00:12:50.974437036,E4_Acc,2024-06-25 12:45:48.916810036,-13.0,-62.0,21.0
1904-01-01 00:12:51.005687036,E4_Acc,2024-06-25 12:45:48.948060036,-20.0,-59.0,12.0
1904-01-01 00:12:51.036937036,E4_Acc,2024-06-25 12:45:48.979310036,-19.0,-61.0,12.0
1904-01-01 00:12:51.068187036,E4_Acc,2024-06-25 12:45:49.010560036,-21.0,-59.0,23.0
1904-01-01 00:12:51.099437036,E4_Acc,2024-06-25 12:45:49.041810036,-41.0,-57.0,14.0
1904-01-01 00:12:51.130697049,E4_Acc,2024-06-25 12:45:49.073070049,-30.0,-59.0,14.0
1904-01-01 00:12:51.161947049,E4_Acc,2024-06-25 12:45:49.104320049,-19.0,-56.0,14.0
1904-01-01 00:12:51.193197049,E4_Acc,2024-06-25 12:45:49.135570049,-18.0,-61.0,14.0
1904-01-01 00:12:51.224447049,E4_Acc,2024-06-25 12:45:49.166820049,-19.0,-62.0,11.0
1904-01-01 00:12:51.255697049,E4_Acc,2024-06-25 12:45:49.198070049,-25.0,-59.0,16.0
1904-01-01 00:12:51.286947049,E4_Acc,2024-06-25 12:45:49.229320049,-34.0,-59.0,15.0
1904-01-01 00:12:51.318197049,E4_Acc,2024-06-25 12:45:49.260570049,-23.0,-56.0,20.0
1904-01-01 00:12:51.349457063,E4_Acc,2024-06-25 12:45:49.291830063,-14.0,-60.0,18.0
1904-01-01 00:12:51.380707063,E4_Acc,2024-06-25 12:45:49.323080063,-15.0,-58.0,18.0
1904-01-01 00:12:51.411957063,E4_Acc,2024-06-25 12:45:49.354330063,-19.0,-57.0,21.0
1904-01-01 00:12:51.443207063,E4_Acc,2024-06-25 12:45:49.385580063,-25.0,-55.0,17.0
1904-01-01 00:12:51.474457063,E4_Acc,2024-06-25 12:45:49.416830063,-29.0,-60.0,8.0
1904-01-01 00:12:51.505707063,E4_Acc,2024-06-25 12:45:49.448080063,-16.0,-62.0,6.0
1904-01-01 00:12:51.536957063,E4_Acc,2024-06-25 12:45:49.479330063,-18.0,-60.0,4.0
1904-01-01 00:12:51.568217075,E4_Acc,2024-06-25 12:45:49.510590075,-20.0,-59.0,11.0
1904-01-01 00:12:51.599467076,E4_Acc,2024-06-25 12:45:49.541840076,-21.0,-58.0,13.0
1904-01-01 00:12:51.630717076,E4_Acc,2024-06-25 12:45:49.573090076,-23.0,-62.0,10.0
1904-01-01 00:12:51.661967076,E4_Acc,2024-06-25 12:45:49.604340076,-23.0,-57.0,26.0
1904-01-01 00:12:51.693217076,E4_Acc,2024-06-25 12:45:49.635590076,-34.0,-35.0,43.0
1904-01-01 00:12:51.724467076,E4_Acc,2024-06-25 12:45:49.666840076,-43.0,-66.0,-12.0
1904-01-01 00:12:51.755717076,E4_Acc,2024-06-25 12:45:49.698090076,-28.0,-64.0,-15.0
1904-01-01 00:12:51.786977090,E4_Acc,2024-06-25 12:45:49.729350090,-13.0,-64.0,-8.0
1904-01-01 00:12:51.818227090,E4_Acc,2024-06-25 12:45:49.760600090,-19.0,-64.0,-7.0
1904-01-01 00:12:51.849477090,E4_Acc,2024-06-25 12:45:49.791850090,-19.0,-63.0,-9.0
1904-01-01 00:12:51.880727090,E4_Acc,2024-06-25 12:45:49.823100090,-10.0,-65.0,-7.0
1904-01-01 00:12:51.911977090,E4_Acc,2024-06-25 12:45:49.854350090,-15.0,-64.0,-5.0
1904-01-01 00:12:51.943227090,E4_Acc,2024-06-25 12:45:49.885600090,-12.0,-61.0,6.0
1904-01-01 00:12:51.974477090,E4_Acc,2024-06-25 12:45:49.916850090,-9.0,-62.0,3.0
1904-01-01 00:12:52.005737104,E4_Acc,2024-06-25 12:45:49.948110104,-14.0,-60.0,2.0
1904-01-01 00:12:52.036987104,E4_Acc,2024-06-25 12:45:49.979360104,-18.0,-61.0,1.0
1904-01-01 00:12:52.068237104,E4_Acc,2024-06-25 12:45:50.010610104,-10.0,-62.0,5.0
1904-01-01 00:12:52.099487104,E4_Acc,2024-06-25 12:45:50.041860104,-10.0,-63.0,11.0
1904-01-01 00:12:52.130737104,E4_Acc,2024-06-25 12:45:50.073110104,-9.0,-67.0,15.0
1904-01-01 00:12:52.161987104,E4_Acc,2024-06-25 12:45:50.104360104,-6.0,-64.0,19.0
1904-01-01 00:12:52.193237104,E4_Acc,2024-06-25 12:45:50.135610104,-11.0,-62.0,20.0
1904-01-01 00:12:52.224497117,E4_Acc,2024-06-25 12:45:50.166870117,-6.0,-61.0,20.0
1904-01-01 00:12:52.255747117,E4_Acc,2024-06-25 12:45:50.198120117,-12.0,-61.0,17.0
1904-01-01 00:12:52.286997117,E4_Acc,2024-06-25 12:45:50.229370117,-11.0,-60.0,16.0
1904-01-01 00:12:52.318247116,E4_Acc,2024-06-25 12:45:50.260620116,-10.0,-60.0,16.0
1904-01-01 00:12:52.349497117,E4_Acc,2024-06-25 12:45:50.291870117,-12.0,-61.0,10.0
1904-01-01 00:12:52.380747117,E4_Acc,2024-06-25 12:45:50.323120117,-6.0,-62.0,16.0
1904-01-01 00:12:52.411997117,E4_Acc,2024-06-25 12:45:50.354370117,-8.0,-61.0,17.0
1904-01-01 00:12:52.443256892,E4_Acc,2024-06-25 12:45:50.385629892,-14.0,-64.0,12.0
1904-01-01 00:12:52.474506892,E4_Acc,2024-06-25 12:45:50.416879892,-16.0,-63.0,9.0
1904-01-01 00:12:52.505756892,E4_Acc,2024-06-25 12:45:50.448129892,-15.0,-62.0,9.0
1904-01-01 00:12:52.537006892,E4_Acc,2024-06-25 12:45:50.479379892,-9.0,-61.0,15.0
1904-01-01 00:12:52.568256892,E4_Acc,2024-06-25 12:45:50.510629892,-15.0,-61.0,10.0
1904-01-01 00:12:52.599506892,E4_Acc,2024-06-25 12:45:50.541879892,-7.0,-63.0,15.0
1904-01-01 00:12:52.630756892,E4_Acc,2024-06-25 12:45:50.573129892,-9.0,-61.0,16.0
1904-01-01 00:12:52.662016906,E4_Acc,2024-06-25 12:45:50.604389906,-4.0,-63.0,19.0
1904-01-01 00:12:52.693266906,E4_Acc,2024-06-25 12:45:50.635639906,-7.0,-63.0,17.0
1904-01-01 00:12:52.724516906,E4_Acc,2024-06-25 12:45:50.666889906,-8.0,-65.0,15.0
1904-01-01 00:12:52.755766906,E4_Acc,2024-06-25 12:45:50.698139906,-9.0,-63.0,10.0
1904-01-01 00:12:52.787016906,E4_Acc,2024-06-25 12:45:50.729389906,-18.0,-61.0,6.0
1904-01-01 00:12:52.818266906,E4_Acc,2024-06-25 12:45:50.760639906,-15.0,-61.0,13.0
1904-01-01 00:12:52.849516906,E4_Acc,2024-06-25 12:45:50.791889906,-4.0,-62.0,17.0
1904-01-01 00:12:52.880776920,E4_Acc,2024-06-25 12:45:50.823149920,-3.0,-61.0,15.0
1904-01-01 00:12:52.912026920,E4_Acc,2024-06-25 12:45:50.854399920,-9.0,-62.0,11.0
1904-01-01 00:12:52.943276920,E4_Acc,2024-06-25 12:45:50.885649920,-9.0,-62.0,13.0
1904-01-01 00:12:52.974526920,E4_Acc,2024-06-25 12:45:50.916899920,-12.0,-64.0,15.0
1904-01-01 00:12:53.005776920,E4_Acc,2024-06-25 12:45:50.948149920,-6.0,-62.0,17.0
1904-01-01 00:12:53.037026920,E4_Acc,2024-06-25 12:45:50.979399920,-10.0,-62.0,15.0
1904-01-01 00:12:53.068276920,E4_Acc,2024-06-25 12:45:51.010649920,-7.0,-63.0,16.0
1904-01-01 00:12:53.099536933,E4_Acc,2024-06-25 12:45:51.041909933,2.0,-63.0,23.0
1904-01-01 00:12:53.130786933,E4_Acc,2024-06-25 12:45:51.073159933,-8.0,-64.0,11.0
1904-01-01 00:12:53.162036933,E4_Acc,2024-06-25 12:45:51.104409933,-11.0,-61.0,10.0
1904-01-01 00:12:53.193286933,E4_Acc,2024-06-25 12:45:51.135659933,-11.0,-62.0,12.0
1904-01-01 00:12:53.224536933,E4_Acc,2024-06-25 12:45:51.166909933,-14.0,-62.0,12.0
1904-01-01 00:12:53.255786933,E4_Acc,2024-06-25 12:45:51.198159933,-14.0,-63.0,12.0
1904-01-01 00:12:53.287036933,E4_Acc,2024-06-25 12:45:51.229409933,-15.0,-64.0,11.0
1904-01-01 00:12:53.318296947,E4_Acc,2024-06-25 12:45:51.260669947,-12.0,-65.0,11.0
1904-01-01 00:12:53.349546947,E4_Acc,2024-06-25 12:45:51.291919947,-13.0,-65.0,9.0
1904-01-01 00:12:53.380796947,E4_Acc,2024-06-25 12:45:51.323169947,-14.0,-63.0,9.0
1904-01-01 00:12:53.412046947,E4_Acc,2024-06-25 12:45:51.354419947,-14.0,-62.0,10.0
1904-01-01 00:12:53.443296947,E4_Acc,2024-06-25 12:45:51.385669947,-13.0,-62.0,9.0
1904-01-01 00:12:53.474546947,E4_Acc,2024-06-25 12:45:51.416919947,-10.0,-62.0,8.0
1904-01-01 00:12:53.505806960,E4_Acc,2024-06-25 12:45:51.448179960,-9.0,-61.0,8.0
1904-01-01 00:12:53.537056960,E4_Acc,2024-06-25 12:45:51.479429960,-12.0,-61.0,10.0
1904-01-01 00:12:53.568306960,E4_Acc,2024-06-25 12:45:51.510679960,-11.0,-63.0,9.0
1904-01-01 00:12:53.599556960,E4_Acc,2024-06-25 12:45:51.541929960,-11.0,-63.0,9.0
1904-01-01 00:12:53.630806960,E4_Acc,2024-06-25 12:45:51.573179960,-16.0,-62.0,8.0
1904-01-01 00:12:53.662056960,E4_Acc,2024-06-25 12:45:51.604429960,-17.0,-62.0,9.0
1904-01-01 00:12:53.693306960,E4_Acc,2024-06-25 12:45:51.635679960,-17.0,-62.0,9.0
1904-01-01 00:12:53.724566974,E4_Acc,2024-06-25 12:45:51.666939974,-19.0,-60.0,11.0
1904-01-01 00:12:53.755816974,E4_Acc,2024-06-25 12:45:51.698189974,-18.0,-61.0,10.0
1904-01-01 00:12:53.787066974,E4_Acc,2024-06-25 12:45:51.729439974,-25.0,-58.0,12.0
1904-01-01 00:12:53.818316974,E4_Acc,2024-06-25 12:45:51.760689974,-29.0,-57.0,14.0
1904-01-01 00:12:53.849566974,E4_Acc,2024-06-25 12:45:51.791939974,-26.0,-61.0,15.0
1904-01-01 00:12:53.880816974,E4_Acc,2024-06-25 12:45:51.823189974,-27.0,-54.0,18.0
1904-01-01 00:12:53.912066974,E4_Acc,2024-06-25 12:45:51.854439974,-33.0,-51.0,19.0
1904-01-01 00:12:53.943326987,E4_Acc,2024-06-25 12:45:51.885699987,-30.0,-50.0,25.0
1904-01-01 00:12:53.974576987,E4_Acc,2024-06-25 12:45:51.916949987,-25.0,-49.0,29.0
1904-01-01 00:12:54.005826987,E4_Acc,2024-06-25 12:45:51.948199987,-15.0,-47.0,31.0
1904-01-01 00:12:54.037076987,E4_Acc,2024-06-25 12:45:51.979449987,-8.0,-32.0,37.0
1904-01-01 00:12:54.068326987,E4_Acc,2024-06-25 12:45:52.010699987,-3.0,-27.0,48.0
1904-01-01 00:12:54.099576987,E4_Acc,2024-06-25 12:45:52.041949987,-14.0,-25.0,56.0
1904-01-01 00:12:54.130826987,E4_Acc,2024-06-25 12:45:52.073199987,-24.0,-29.0,58.0
1904-01-01 00:12:54.162087001,E4_Acc,2024-06-25 12:45:52.104460001,-30.0,-26.0,49.0
1904-01-01 00:12:54.193337001,E4_Acc,2024-06-25 12:45:52.135710001,-43.0,-21.0,30.0
1904-01-01 00:12:54.224587001,E4_Acc,2024-06-25 12:45:52.166960001,-50.0,-19.0,26.0
1904-01-01 00:12:54.255837001,E4_Acc,2024-06-25 12:45:52.198210001,-50.0,-21.0,26.0
1904-01-01 00:12:54.287087001,E4_Acc,2024-06-25 12:45:52.229460001,-51.0,-22.0,25.0
1904-01-01 00:12:54.318337001,E4_Acc,2024-06-25 12:45:52.260710001,-73.0,-6.0,45.0
1904-01-01 00:12:54.349587001,E4_Acc,2024-06-25 12:45:52.291960001,-69.0,-2.0,59.0
1904-01-01 00:12:54.380847015,E4_Acc,2024-06-25 12:45:52.323220015,-53.0,1.0,64.0
1904-01-01 00:12:54.412097015,E4_Acc,2024-06-25 12:45:52.354470015,-41.0,-9.0,43.0
1904-01-01 00:12:54.443347015,E4_Acc,2024-06-25 12:45:52.385720015,-39.0,-10.0,48.0
1904-01-01 00:12:54.474597015,E4_Acc,2024-06-25 12:45:52.416970015,-32.0,-10.0,47.0
1904-01-01 00:12:54.505847015,E4_Acc,2024-06-25 12:45:52.448220015,-42.0,-11.0,20.0
1904-01-01 00:12:54.537097015,E4_Acc,2024-06-25 12:45:52.479470015,-65.0,-2.0,4.0
1904-01-01 00:12:54.568347015,E4_Acc,2024-06-25 12:45:52.510720015,-78.0,-6.0,-12.0
1904-01-01 00:12:54.599607028,E4_Acc,2024-06-25 12:45:52.541980028,-69.0,-7.0,-26.0
1904-01-01 00:12:54.630857028,E4_Acc,2024-06-25 12:45:52.573230028,-65.0,-12.0,-24.0
1904-01-01 00:12:54.662107028,E4_Acc,2024-06-25 12:45:52.604480028,-49.0,-13.0,-16.0
1904-01-01 00:12:54.693357028,E4_Acc,2024-06-25 12:45:52.635730028,-47.0,-15.0,-22.0
1904-01-01 00:12:54.724607028,E4_Acc,2024-06-25 12:45:52.666980028,-62.0,-13.0,-46.0
1904-01-01 00:12:54.755857028,E4_Acc,2024-06-25 12:45:52.698230028,-54.0,-20.0,-38.0
1904-01-01 00:12:54.787107028,E4_Acc,2024-06-25 12:45:52.729480028,-50.0,-23.0,-28.0
1904-01-01 00:12:54.818367042,E4_Acc,2024-06-25 12:45:52.760740042,-58.0,-12.0,-26.0
1904-01-01 00:12:54.849617042,E4_Acc,2024-06-25 12:45:52.791990042,-52.0,-7.0,-25.0
1904-01-01 00:12:54.880867042,E4_Acc,2024-06-25 12:45:52.823240042,-55.0,-7.0,-11.0
1904-01-01 00:12:54.912117042,E4_Acc,2024-06-25 12:45:52.854490042,-65.0,0.0,-4.0
1904-01-01 00:12:54.943367042,E4_Acc,2024-06-25 12:45:52.885740042,-62.0,0.0,-3.0
1904-01-01 00:12:54.974617042,E4_Acc,2024-06-25 12:45:52.916990042,-72.0,0.0,-5.0
1904-01-01 00:12:55.005867042,E4_Acc,2024-06-25 12:45:52.948240042,-75.0,2.0,-3.0
1904-01-01 00:12:55.037127055,E4_Acc,2024-06-25 12:45:52.979500055,-72.0,8.0,31.0
1904-01-01 00:12:55.068377055,E4_Acc,2024-06-25 12:45:53.010750055,-80.0,13.0,20.0
1904-01-01 00:12:55.099627055,E4_Acc,2024-06-25 12:45:53.042000055,-87.0,6.0,-6.0
1904-01-01 00:12:55.130877055,E4_Acc,2024-06-25 12:45:53.073250055,-69.0,8.0,-4.0
1904-01-01 00:12:55.162127055,E4_Acc,2024-06-25 12:45:53.104500055,-53.0,7.0,-6.0
1904-01-01 00:12:55.193377055,E4_Acc,2024-06-25 12:45:53.135750055,-50.0,4.0,3.0
1904-01-01 00:12:55.224627055,E4_Acc,2024-06-25 12:45:53.167000055,-62.0,4.0,-5.0
1904-01-01 00:12:55.255887069,E4_Acc,2024-06-25 12:45:53.198260069,-65.0,2.0,-9.0
1904-01-01 00:12:55.287137069,E4_Acc,2024-06-25 12:45:53.229510069,-79.0,1.0,-14.0
1904-01-01 00:12:55.318387068,E4_Acc,2024-06-25 12:45:53.260760068,-77.0,0.0,-9.0
1904-01-01 00:12:55.349637069,E4_Acc,2024-06-25 12:45:53.292010069,-72.0,2.0,-7.0
1904-01-01 00:12:55.380887069,E4_Acc,2024-06-25 12:45:53.323260069,-65.0,2.0,-2.0
1904-01-01 00:12:55.412137069,E4_Acc,2024-06-25 12:45:53.354510069,-61.0,3.0,-1.0
1904-01-01 00:12:55.443387069,E4_Acc,2024-06-25 12:45:53.385760069,-53.0,5.0,5.0
1904-01-01 00:12:55.474647082,E4_Acc,2024-06-25 12:45:53.417020082,-52.0,5.0,12.0
1904-01-01 00:12:55.505897082,E4_Acc,2024-06-25 12:45:53.448270082,-54.0,6.0,11.0
1904-01-01 00:12:55.537147082,E4_Acc,2024-06-25 12:45:53.479520082,-63.0,5.0,6.0
1904-01-01 00:12:55.568397081,E4_Acc,2024-06-25 12:45:53.510770081,-67.0,5.0,5.0
1904-01-01 00:12:55.599647082,E4_Acc,2024-06-25 12:45:53.542020082,-67.0,3.0,4.0
1904-01-01 00:12:55.630897082,E4_Acc,2024-06-25 12:45:53.573270082,-71.0,4.0,-3.0
1904-01-01 00:12:55.662157096,E4_Acc,2024-06-25 12:45:53.604530096,-70.0,3.0,-3.0
1904-01-01 00:12:55.693407096,E4_Acc,2024-06-25 12:45:53.635780096,-64.0,1.0,2.0
1904-01-01 00:12:55.724657096,E4_Acc,2024-06-25 12:45:53.667030096,-62.0,1.0,2.0
1904-01-01 00:12:55.755907096,E4_Acc,2024-06-25 12:45:53.698280096,-63.0,2.0,4.0
1904-01-01 00:12:55.787157096,E4_Acc,2024-06-25 12:45:53.729530096,-61.0,1.0,4.0
1904-01-01 00:12:55.818407096,E4_Acc,2024-06-25 12:45:53.760780096,-62.0,1.0,3.0
1904-01-01 00:12:55.849657096,E4_Acc,2024-06-25 12:45:53.792030096,-63.0,3.0,4.0
1904-01-01 00:12:55.880917110,E4_Acc,2024-06-25 12:45:53.823290110,-63.0,3.0,6.0
1904-01-01 00:12:55.912167110,E4_Acc,2024-06-25 12:45:53.854540110,-65.0,3.0,3.0
1904-01-01 00:12:55.943417110,E4_Acc,2024-06-25 12:45:53.885790110,-66.0,4.0,3.0
1904-01-01 00:12:55.974667110,E4_Acc,2024-06-25 12:45:53.917040110,-66.0,4.0,2.0
1904-01-01 00:12:56.005917110,E4_Acc,2024-06-25 12:45:53.948290110,-65.0,4.0,1.0
1904-01-01 00:12:56.037167110,E4_Acc,2024-06-25 12:45:53.979540110,-64.0,4.0,1.0
1904-01-01 00:12:56.068417110,E4_Acc,2024-06-25 12:45:54.010790110,-65.0,4.0,1.0
1904-01-01 00:12:56.099676885,E4_Acc,2024-06-25 12:45:54.042049885,-66.0,4.0,0.0
1904-01-01 00:12:56.130926885,E4_Acc,2024-06-25 12:45:54.073299885,-66.0,4.0,0.0
1904-01-01 00:12:56.162176885,E4_Acc,2024-06-25 12:45:54.104549885,-66.0,6.0,2.0
1904-01-01 00:12:56.193426885,E4_Acc,2024-06-25 12:45:54.135799885,-66.0,5.0,2.0
1904-01-01 00:12:56.224676885,E4_Acc,2024-06-25 12:45:54.167049885,-63.0,5.0,0.0
1904-01-01 00:12:56.255926885,E4_Acc,2024-06-25 12:45:54.198299885,-70.0,6.0,2.0
1904-01-01 00:12:56.287176885,E4_Acc,2024-06-25 12:45:54.229549885,-73.0,9.0,3.0
1904-01-01 00:12:56.318436897,E4_Acc,2024-06-25 12:45:54.260809897,-73.0,11.0,11.0
1904-01-01 00:12:56.349686898,E4_Acc,2024-06-25 12:45:54.292059898,-73.0,11.0,16.0
1904-01-01 00:12:56.380936898,E4_Acc,2024-06-25 12:45:54.323309898,-56.0,11.0,27.0
1904-01-01 00:12:56.412186898,E4_Acc,2024-06-25 12:45:54.354559898,-52.0,15.0,13.0
1904-01-01 00:12:56.443436898,E4_Acc,2024-06-25 12:45:54.385809898,-52.0,19.0,13.0
1904-01-01 00:12:56.474686898,E4_Acc,2024-06-25 12:45:54.417059898,-53.0,15.0,9.0
1904-01-01 00:12:56.505936898,E4_Acc,2024-06-25 12:45:54.448309898,-51.0,15.0,3.0
1904-01-01 00:12:56.537196912,E4_Acc,2024-06-25 12:45:54.479569912,-50.0,14.0,3.0
1904-01-01 00:12:56.568446912,E4_Acc,2024-06-25 12:45:54.510819912,-49.0,9.0,4.0
1904-01-01 00:12:56.599696912,E4_Acc,2024-06-25 12:45:54.542069912,-49.0,4.0,2.0
1904-01-01 00:12:56.630946912,E4_Acc,2024-06-25 12:45:54.573319912,-58.0,16.0,-14.0
1904-01-01 00:12:56.662196912,E4_Acc,2024-06-25 12:45:54.604569912,-60.0,10.0,-26.0
1904-01-01 00:12:56.693446912,E4_Acc,2024-06-25 12:45:54.635819912,-59.0,14.0,-28.0
1904-01-01 00:12:56.724696912,E4_Acc,2024-06-25 12:45:54.667069912,-57.0,-3.0,-46.0
1904-01-01 00:12:56.755956926,E4_Acc,2024-06-25 12:45:54.698329926,-58.0,12.0,-20.0
1904-01-01 00:12:56.787206926,E4_Acc,2024-06-25 12:45:54.729579926,-74.0,7.0,-50.0
1904-01-01 00:12:56.818456926,E4_Acc,2024-06-25 12:45:54.760829926,-60.0,14.0,-38.0
1904-01-01 00:12:56.849706926,E4_Acc,2024-06-25 12:45:54.792079926,-55.0,11.0,-35.0
1904-01-01 00:12:56.880956926,E4_Acc,2024-06-25 12:45:54.823329926,-47.0,10.0,-28.0
1904-01-01 00:12:56.912206926,E4_Acc,2024-06-25 12:45:54.854579926,-51.0,10.0,-24.0
1904-01-01 00:12:56.943456926,E4_Acc,2024-06-25 12:45:54.885829926,-60.0,9.0,-19.0
1904-01-01 00:12:56.974716939,E4_Acc,2024-06-25 12:45:54.917089939,-62.0,9.0,-13.0
1904-01-01 00:12:57.005966939,E4_Acc,2024-06-25 12:45:54.948339939,-63.0,6.0,-7.0
1904-01-01 00:12:57.037216939,E4_Acc,2024-06-25 12:45:54.979589939,-56.0,5.0,7.0
1904-01-01 00:12:57.068466939,E4_Acc,2024-06-25 12:45:55.010839939,-53.0,10.0,14.0
1904-01-01 00:12:57.099716939,E4_Acc,2024-06-25 12:45:55.042089939,-45.0,23.0,18.0
1904-01-01 00:12:57.130966939,E4_Acc,2024-06-25 12:45:55.073339939,-29.0,31.0,17.0
1904-01-01 00:12:57.162216939,E4_Acc,2024-06-25 12:45:55.104589939,-25.0,34.0,16.0
1904-01-01 00:12:57.193476953,E4_Acc,2024-06-25 12:45:55.135849953,-21.0,43.0,13.0
1904-01-01 00:12:57.224726953,E4_Acc,2024-06-25 12:45:55.167099953,-24.0,52.0,11.0
1904-01-01 00:12:57.255976953,E4_Acc,2024-06-25 12:45:55.198349953,-26.0,66.0,6.0
1904-01-01 00:12:57.287226953,E4_Acc,2024-06-25 12:45:55.229599953,-37.0,77.0,1.0
1904-01-01 00:12:57.318476953,E4_Acc,2024-06-25 12:45:55.260849953,-56.0,86.0,-3.0
1904-01-01 00:12:57.349726953,E4_Acc,2024-06-25 12:45:55.292099953,-57.0,78.0,-7.0
1904-01-01 00:12:57.380976953,E4_Acc,2024-06-25 12:45:55.323349953,-44.0,72.0,2.0
1904-01-01 00:12:57.412236966,E4_Acc,2024-06-25 12:45:55.354609966,-35.0,78.0,-3.0
1904-01-01 00:12:57.443486966,E4_Acc,2024-06-25 12:45:55.385859966,-5.0,67.0,4.0
1904-01-01 00:12:57.474736966,E4_Acc,2024-06-25 12:45:55.417109966,-20.0,65.0,-5.0
1904-01-01 00:12:57.505986966,E4_Acc,2024-06-25 12:45:55.448359966,-50.0,63.0,5.0
1904-01-01 00:12:57.537236966,E4_Acc,2024-06-25 12:45:55.479609966,-63.0,52.0,53.0
1904-01-01 00:12:57.568486966,E4_Acc,2024-06-25 12:45:55.510859966,-32.0,57.0,37.0
1904-01-01 00:12:57.599736966,E4_Acc,2024-06-25 12:45:55.542109966,-36.0,49.0,-11.0
1904-01-01 00:12:57.630996980,E4_Acc,2024-06-25 12:45:55.573369980,-34.0,51.0,-10.0
1904-01-01 00:12:57.662246980,E4_Acc,2024-06-25 12:45:55.604619980,-29.0,59.0,-8.0
1904-01-01 00:12:57.693496980,E4_Acc,2024-06-25 12:45:55.635869980,-15.0,64.0,-6.0
1904-01-01 00:12:57.724746980,E4_Acc,2024-06-25 12:45:55.667119980,-13.0,63.0,-4.0
1904-01-01 00:12:57.755996980,E4_Acc,2024-06-25 12:45:55.698369980,-14.0,62.0,2.0
1904-01-01 00:12:57.787246980,E4_Acc,2024-06-25 12:45:55.729619980,-13.0,62.0,5.0
1904-01-01 00:12:57.818496980,E4_Acc,2024-06-25 12:45:55.760869980,-14.0,65.0,8.0
1904-01-01 00:12:57.849756993,E4_Acc,2024-06-25 12:45:55.792129993,-17.0,66.0,8.0
1904-01-01 00:12:57.881006993,E4_Acc,2024-06-25 12:45:55.823379993,-17.0,66.0,7.0
1904-01-01 00:12:57.912256993,E4_Acc,2024-06-25 12:45:55.854629993,-15.0,65.0,4.0
1904-01-01 00:12:57.943506993,E4_Acc,2024-06-25 12:45:55.885879993,-13.0,63.0,4.0
1904-01-01 00:12:57.974756993,E4_Acc,2024-06-25 12:45:55.917129993,-12.0,62.0,5.0
1904-01-01 00:12:58.006006993,E4_Acc,2024-06-25 12:45:55.948379993,-14.0,60.0,9.0
1904-01-01 00:12:58.037267007,E4_Acc,2024-06-25 12:45:55.979640007,-16.0,58.0,14.0
1904-01-01 00:12:58.068517007,E4_Acc,2024-06-25 12:45:56.010890007,-11.0,68.0,20.0
1904-01-01 00:12:58.099767007,E4_Acc,2024-06-25 12:45:56.042140007,-18.0,62.0,13.0
1904-01-01 00:12:58.131017007,E4_Acc,2024-06-25 12:45:56.073390007,-25.0,66.0,3.0
1904-01-01 00:12:58.162267007,E4_Acc,2024-06-25 12:45:56.104640007,-18.0,57.0,6.0
1904-01-01 00:12:58.193517007,E4_Acc,2024-06-25 12:45:56.135890007,-16.0,61.0,8.0
1904-01-01 00:12:58.224767007,E4_Acc,2024-06-25 12:45:56.167140007,-16.0,63.0,7.0
1904-01-01 00:12:58.256027021,E4_Acc,2024-06-25 12:45:56.198400021,-14.0,62.0,7.0
1904-01-01 00:12:58.287277021,E4_Acc,2024-06-25 12:45:56.229650021,-14.0,63.0,8.0
1904-01-01 00:12:58.318527020,E4_Acc,2024-06-25 12:45:56.260900020,-16.0,63.0,7.0
1904-01-01 00:12:58.349777021,E4_Acc,2024-06-25 12:45:56.292150021,-17.0,62.0,6.0
1904-01-01 00:12:58.381027021,E4_Acc,2024-06-25 12:45:56.323400021,-20.0,61.0,4.0
1904-01-01 00:12:58.412277021,E4_Acc,2024-06-25 12:45:56.354650021,-20.0,62.0,4.0
1904-01-01 00:12:58.443527021,E4_Acc,2024-06-25 12:45:56.385900021,-21.0,61.0,5.0
1904-01-01 00:12:58.474787034,E4_Acc,2024-06-25 12:45:56.417160034,-20.0,61.0,6.0
1904-01-01 00:12:58.506037034,E4_Acc,2024-06-25 12:45:56.448410034,-19.0,61.0,7.0
1904-01-01 00:12:58.537287034,E4_Acc,2024-06-25 12:45:56.479660034,-19.0,62.0,8.0
1904-01-01 00:12:58.568537034,E4_Acc,2024-06-25 12:45:56.510910034,-19.0,62.0,9.0
1904-01-01 00:12:58.599787034,E4_Acc,2024-06-25 12:45:56.542160034,-18.0,62.0,9.0
1904-01-01 00:12:58.631037034,E4_Acc,2024-06-25 12:45:56.573410034,-17.0,63.0,9.0
1904-01-01 00:12:58.662287034,E4_Acc,2024-06-25 12:45:56.604660034,-16.0,63.0,9.0
1904-01-01 00:12:58.693547048,E4_Acc,2024-06-25 12:45:56.635920048,-15.0,62.0,8.0
1904-01-01 00:12:58.724797048,E4_Acc,2024-06-25 12:45:56.667170048,-15.0,62.0,8.0
1904-01-01 00:12:58.756047048,E4_Acc,2024-06-25 12:45:56.698420048,-15.0,62.0,7.0
1904-01-01 00:12:58.787297048,E4_Acc,2024-06-25 12:45:56.729670048,-15.0,62.0,6.0
1904-01-01 00:12:58.818547048,E4_Acc,2024-06-25 12:45:56.760920048,-15.0,62.0,6.0
1904-01-01 00:12:58.849797048,E4_Acc,2024-06-25 12:45:56.792170048,-15.0,62.0,6.0
1904-01-01 00:12:58.881047048,E4_Acc,2024-06-25 12:45:56.823420048,-15.0,62.0,6.0
1904-01-01 00:12:58.912307061,E4_Acc,2024-06-25 12:45:56.854680061,-15.0,62.0,6.0
1904-01-01 00:12:58.943557061,E4_Acc,2024-06-25 12:45:56.885930061,-15.0,62.0,7.0
1904-01-01 00:12:58.974807061,E4_Acc,2024-06-25 12:45:56.917180061,-16.0,62.0,7.0
1904-01-01 00:12:59.006057061,E4_Acc,2024-06-25 12:45:56.948430061,-16.0,62.0,8.0
1904-01-01 00:12:59.037307061,E4_Acc,2024-06-25 12:45:56.979680061,-17.0,62.0,8.0
1904-01-01 00:12:59.068557061,E4_Acc,2024-06-25 12:45:57.010930061,-17.0,62.0,8.0
1904-01-01 00:12:59.099807061,E4_Acc,2024-06-25 12:45:57.042180061,-17.0,62.0,7.0
1904-01-01 00:12:59.131067075,E4_Acc,2024-06-25 12:45:57.073440075,-18.0,62.0,7.0
1904-01-01 00:12:59.162317075,E4_Acc,2024-06-25 12:45:57.104690075,-17.0,62.0,7.0
1904-01-01 00:12:59.193567075,E4_Acc,2024-06-25 12:45:57.135940075,-18.0,62.0,7.0
1904-01-01 00:12:59.224817075,E4_Acc,2024-06-25 12:45:57.167190075,-17.0,62.0,7.0
1904-01-01 00:12:59.256067075,E4_Acc,2024-06-25 12:45:57.198440075,-17.0,62.0,7.0
1904-01-01 00:12:59.287317075,E4_Acc,2024-06-25 12:45:57.229690075,-17.0,62.0,6.0
1904-01-01 00:12:59.318567075,E4_Acc,2024-06-25 12:45:57.260940075,-16.0,62.0,7.0
1904-01-01 00:12:59.349827089,E4_Acc,2024-06-25 12:45:57.292200089,-16.0,62.0,7.0
1904-01-01 00:12:59.381077089,E4_Acc,2024-06-25 12:45:57.323450089,-16.0,62.0,6.0
1904-01-01 00:12:59.412327089,E4_Acc,2024-06-25 12:45:57.354700089,-16.0,63.0,7.0
1904-01-01 00:12:59.443577089,E4_Acc,2024-06-25 12:45:57.385950089,-15.0,62.0,7.0
1904-01-01 00:12:59.474827089,E4_Acc,2024-06-25 12:45:57.417200089,-15.0,62.0,7.0
1904-01-01 00:12:59.506077089,E4_Acc,2024-06-25 12:45:57.448450089,-15.0,63.0,7.0
1904-01-01 00:12:59.537327089,E4_Acc,2024-06-25 12:45:57.479700089,-15.0,63.0,7.0
1904-01-01 00:12:59.568587102,E4_Acc,2024-06-25 12:45:57.510960102,-16.0,62.0,7.0
1904-01-01 00:12:59.599837102,E4_Acc,2024-06-25 12:45:57.542210102,-16.0,62.0,7.0
1904-01-01 00:12:59.631087102,E4_Acc,2024-06-25 12:45:57.573460102,-16.0,62.0,7.0
1904-01-01 00:12:59.662337102,E4_Acc,2024-06-25 12:45:57.604710102,-16.0,62.0,7.0
1904-01-01 00:12:59.693587102,E4_Acc,2024-06-25 12:45:57.635960102,-17.0,62.0,7.0
1904-01-01 00:12:59.724837102,E4_Acc,2024-06-25 12:45:57.667210102,-17.0,62.0,7.0
1904-01-01 00:12:59.756087102,E4_Acc,2024-06-25 12:45:57.698460102,-17.0,62.0,7.0
1904-01-01 00:12:59.787347116,E4_Acc,2024-06-25 12:45:57.729720116,-17.0,62.0,8.0
1904-01-01 00:12:59.818597116,E4_Acc,2024-06-25 12:45:57.760970116,-17.0,62.0,7.0
1904-01-01 00:12:59.849847116,E4_Acc,2024-06-25 12:45:57.792220116,-17.0,62.0,7.0
1904-01-01 00:12:59.881097116,E4_Acc,2024-06-25 12:45:57.823470116,-16.0,62.0,7.0
1904-01-01 00:12:59.912347116,E4_Acc,2024-06-25 12:45:57.854720116,-16.0,62.0,7.0
1904-01-01 00:12:59.943597116,E4_Acc,2024-06-25 12:45:57.885970116,-16.0,62.0,7.0
1904-01-01 00:12:59.974847116,E4_Acc,2024-06-25 12:45:57.917220116,-16.0,62.0,7.0
1904-01-01 00:13:00.006106891,E4_Acc,2024-06-25 12:45:57.948479891,-16.0,62.0,7.0
1904-01-01 00:13:00.037356891,E4_Acc,2024-06-25 12:45:57.979729891,-16.0,62.0,7.0
1904-01-01 00:13:00.068606891,E4_Acc,2024-06-25 12:45:58.010979891,-16.0,63.0,7.0
1904-01-01 00:13:00.099856891,E4_Acc,2024-06-25 12:45:58.042229891,-16.0,62.0,7.0
1904-01-01 00:13:00.131106891,E4_Acc,2024-06-25 12:45:58.073479891,-16.0,62.0,7.0
1904-01-01 00:13:00.162356891,E4_Acc,2024-06-25 12:45:58.104729891,-16.0,62.0,6.0
1904-01-01 00:13:00.193606891,E4_Acc,2024-06-25 12:45:58.135979891,-16.0,62.0,7.0
1904-01-01 00:13:00.224866904,E4_Acc,2024-06-25 12:45:58.167239904,-16.0,62.0,7.0
1904-01-01 00:13:00.256116904,E4_Acc,2024-06-25 12:45:58.198489904,-16.0,62.0,7.0
1904-01-01 00:13:00.287366904,E4_Acc,2024-06-25 12:45:58.229739904,-17.0,62.0,7.0
1904-01-01 00:13:00.318616904,E4_Acc,2024-06-25 12:45:58.260989904,-17.0,61.0,8.0
1904-01-01 00:13:00.349866904,E4_Acc,2024-06-25 12:45:58.292239904,-18.0,63.0,5.0
1904-01-01 00:13:00.381116904,E4_Acc,2024-06-25 12:45:58.323489904,-14.0,62.0,9.0
1904-01-01 00:13:00.412366904,E4_Acc,2024-06-25 12:45:58.354739904,-16.0,63.0,8.0
1904-01-01 00:13:00.443626918,E4_Acc,2024-06-25 12:45:58.385999918,-17.0,62.0,7.0
1904-01-01 00:13:00.474876918,E4_Acc,2024-06-25 12:45:58.417249918,-15.0,62.0,8.0
1904-01-01 00:13:00.506126918,E4_Acc,2024-06-25 12:45:58.448499918,-17.0,62.0,7.0
1904-01-01 00:13:00.537376918,E4_Acc,2024-06-25 12:45:58.479749918,-16.0,62.0,7.0
1904-01-01 00:13:00.568626918,E4_Acc,2024-06-25 12:45:58.510999918,-16.0,62.0,7.0
1904-01-01 00:13:00.599876918,E4_Acc,2024-06-25 12:45:58.542249918,-16.0,62.0,7.0
1904-01-01 00:13:00.631126918,E4_Acc,2024-06-25 12:45:58.573499918,-16.0,62.0,8.0
1904-01-01 00:13:00.662386932,E4_Acc,2024-06-25 12:45:58.604759932,-17.0,62.0,7.0
1904-01-01 00:13:00.693636932,E4_Acc,2024-06-25 12:45:58.636009932,-16.0,62.0,7.0
1904-01-01 00:13:00.724886932,E4_Acc,2024-06-25 12:45:58.667259932,-16.0,62.0,7.0
1904-01-01 00:13:00.756136932,E4_Acc,2024-06-25 12:45:58.698509932,-16.0,62.0,8.0
1904-01-01 00:13:00.787386932,E4_Acc,2024-06-25 12:45:58.729759932,-17.0,62.0,7.0
1904-01-01 00:13:00.818636932,E4_Acc,2024-06-25 12:45:58.761009932,-17.0,62.0,7.0
1904-01-01 00:13:00.849896945,E4_Acc,2024-06-25 12:45:58.792269945,-16.0,62.0,8.0
1904-01-01 00:13:00.881146945,E4_Acc,2024-06-25 12:45:58.823519945,-16.0,62.0,7.0
1904-01-01 00:13:00.912396945,E4_Acc,2024-06-25 12:45:58.854769945,-16.0,62.0,7.0
1904-01-01 00:13:00.943646945,E4_Acc,2024-06-25 12:45:58.886019945,-16.0,62.0,7.0
1904-01-01 00:13:00.974896945,E4_Acc,2024-06-25 12:45:58.917269945,-16.0,62.0,8.0
1904-01-01 00:13:01.006146945,E4_Acc,2024-06-25 12:45:58.948519945,-16.0,61.0,7.0
1904-01-01 00:13:01.037396945,E4_Acc,2024-06-25 12:45:58.979769945,-17.0,61.0,7.0
1904-01-01 00:13:01.068656959,E4_Acc,2024-06-25 12:45:59.011029959,-17.0,62.0,7.0
1904-01-01 00:13:01.099906959,E4_Acc,2024-06-25 12:45:59.042279959,-17.0,63.0,7.0
1904-01-01 00:13:01.131156959,E4_Acc,2024-06-25 12:45:59.073529959,-17.0,62.0,8.0
1904-01-01 00:13:01.162406959,E4_Acc,2024-06-25 12:45:59.104779959,-17.0,62.0,8.0
1904-01-01 00:13:01.193656959,E4_Acc,2024-06-25 12:45:59.136029959,-16.0,62.0,7.0
1904-01-01 00:13:01.224906959,E4_Acc,2024-06-25 12:45:59.167279959,-16.0,62.0,7.0
1904-01-01 00:13:01.256156959,E4_Acc,2024-06-25 12:45:59.198529959,-16.0,62.0,7.0
1904-01-01 00:13:01.287416972,E4_Acc,2024-06-25 12:45:59.229789972,-16.0,62.0,7.0
1904-01-01 00:13:01.318666972,E4_Acc,2024-06-25 12:45:59.261039972,-16.0,62.0,7.0
1904-01-01 00:13:01.349916972,E4_Acc,2024-06-25 12:45:59.292289972,-16.0,62.0,7.0
1904-01-01 00:13:01.381166972,E4_Acc,2024-06-25 12:45:59.323539972,-16.0,62.0,7.0
1904-01-01 00:13:01.412416972,E4_Acc,2024-06-25 12:45:59.354789972,-16.0,62.0,7.0
1904-01-01 00:13:01.443666972,E4_Acc,2024-06-25 12:45:59.386039972,-16.0,62.0,7.0
1904-01-01 00:13:01.474916972,E4_Acc,2024-06-25 12:45:59.417289972,-17.0,62.0,7.0
1904-01-01 00:13:01.506176986,E4_Acc,2024-06-25 12:45:59.448549986,-17.0,62.0,7.0
1904-01-01 00:13:01.537426986,E4_Acc,2024-06-25 12:45:59.479799986,-17.0,62.0,7.0
1904-01-01 00:13:01.568676985,E4_Acc,2024-06-25 12:45:59.511049985,-17.0,62.0,7.0
1904-01-01 00:13:01.599926986,E4_Acc,2024-06-25 12:45:59.542299986,-17.0,62.0,7.0
1904-01-01 00:13:01.631176986,E4_Acc,2024-06-25 12:45:59.573549986,-17.0,62.0,7.0
1904-01-01 00:13:01.662426986,E4_Acc,2024-06-25 12:45:59.604799986,-17.0,62.0,7.0
1904-01-01 00:13:01.693676986,E4_Acc,2024-06-25 12:45:59.636049986,-17.0,62.0,7.0
1904-01-01 00:13:01.724936999,E4_Acc,2024-06-25 12:45:59.667309999,-16.0,62.0,7.0
1904-01-01 00:13:01.756186999,E4_Acc,2024-06-25 12:45:59.698559999,-16.0,62.0,7.0
1904-01-01 00:13:01.787436999,E4_Acc,2024-06-25 12:45:59.729809999,-16.0,62.0,7.0
1904-01-01 00:13:01.818686999,E4_Acc,2024-06-25 12:45:59.761059999,-16.0,62.0,7.0
1904-01-01 00:13:01.849936999,E4_Acc,2024-06-25 12:45:59.792309999,-16.0,62.0,7.0
1904-01-01 00:13:01.881186999,E4_Acc,2024-06-25 12:45:59.823559999,-16.0,62.0,7.0
1904-01-01 00:13:01.912436999,E4_Acc,2024-06-25 12:45:59.854809999,-17.0,62.0,7.0
1904-01-01 00:13:01.943697013,E4_Acc,2024-06-25 12:45:59.886070013,-16.0,62.0,7.0
1904-01-01 00:13:01.974947013,E4_Acc,2024-06-25 12:45:59.917320013,-17.0,62.0,7.0
1904-01-01 00:13:02.006197013,E4_Acc,2024-06-25 12:45:59.948570013,-17.0,62.0,6.0
1904-01-01 00:13:02.037447013,E4_Acc,2024-06-25 12:45:59.979820013,-17.0,62.0,6.0
1904-01-01 00:13:02.068697013,E4_Acc,2024-06-25 12:46:00.011070013,-17.0,62.0,7.0
1904-01-01 00:13:02.099947013,E4_Acc,2024-06-25 12:46:00.042320013,-17.0,62.0,7.0
1904-01-01 00:13:02.131197013,E4_Acc,2024-06-25 12:46:00.073570013,-17.0,63.0,7.0
1904-01-01 00:13:02.162457027,E4_Acc,2024-06-25 12:46:00.104830027,-17.0,62.0,7.0
1904-01-01 00:13:02.193707027,E4_Acc,2024-06-25 12:46:00.136080027,-17.0,62.0,7.0
1904-01-01 00:13:02.224957027,E4_Acc,2024-06-25 12:46:00.167330027,-17.0,62.0,7.0
1904-01-01 00:13:02.256207027,E4_Acc,2024-06-25 12:46:00.198580027,-16.0,62.0,6.0
1904-01-01 00:13:02.287457027,E4_Acc,2024-06-25 12:46:00.229830027,-16.0,62.0,6.0
1904-01-01 00:13:02.318707027,E4_Acc,2024-06-25 12:46:00.261080027,-17.0,62.0,6.0
1904-01-01 00:13:02.349957027,E4_Acc,2024-06-25 12:46:00.292330027,-16.0,62.0,6.0
1904-01-01 00:13:02.381217040,E4_Acc,2024-06-25 12:46:00.323590040,-16.0,62.0,6.0
1904-01-01 00:13:02.412467040,E4_Acc,2024-06-25 12:46:00.354840040,-16.0,62.0,6.0
1904-01-01 00:13:02.443717040,E4_Acc,2024-06-25 12:46:00.386090040,-16.0,62.0,6.0
1904-01-01 00:13:02.474967040,E4_Acc,2024-06-25 12:46:00.417340040,-16.0,62.0,6.0
1904-01-01 00:13:02.506217040,E4_Acc,2024-06-25 12:46:00.448590040,-16.0,63.0,6.0
1904-01-01 00:13:02.537467040,E4_Acc,2024-06-25 12:46:00.479840040,-16.0,63.0,7.0
1904-01-01 00:13:02.568717040,E4_Acc,2024-06-25 12:46:00.511090040,-16.0,62.0,6.0
1904-01-01 00:13:02.599977054,E4_Acc,2024-06-25 12:46:00.542350054,-16.0,62.0,6.0
1904-01-01 00:13:02.631227054,E4_Acc,2024-06-25 12:46:00.573600054,-16.0,62.0,6.0
1904-01-01 00:13:02.662477054,E4_Acc,2024-06-25 12:46:00.604850054,-16.0,62.0,6.0
1904-01-01 00:13:02.693727054,E4_Acc,2024-06-25 12:46:00.636100054,-16.0,63.0,6.0
1904-01-01 00:13:02.724977054,E4_Acc,2024-06-25 12:46:00.667350054,-16.0,62.0,6.0
1904-01-01 00:13:02.756227054,E4_Acc,2024-06-25 12:46:00.698600054,-16.0,62.0,6.0
1904-01-01 00:13:02.787477054,E4_Acc,2024-06-25 12:46:00.729850054,-16.0,63.0,6.0
1904-01-01 00:13:02.818737067,E4_Acc,2024-06-25 12:46:00.761110067,-16.0,62.0,6.0
1904-01-01 00:13:02.849987067,E4_Acc,2024-06-25 12:46:00.792360067,-16.0,62.0,6.0
1904-01-01 00:13:02.881237067,E4_Acc,2024-06-25 12:46:00.823610067,-16.0,62.0,6.0
1904-01-01 00:13:02.912487067,E4_Acc,2024-06-25 12:46:00.854860067,-16.0,62.0,6.0
1904-01-01 00:13:02.943737067,E4_Acc,2024-06-25 12:46:00.886110067,-16.0,62.0,6.0
1904-01-01 00:13:02.974987067,E4_Acc,2024-06-25 12:46:00.917360067,-16.0,62.0,6.0
1904-01-01 00:13:03.006247081,E4_Acc,2024-06-25 12:46:00.948620081,-16.0,62.0,6.0
1904-01-01 00:13:03.037497081,E4_Acc,2024-06-25 12:46:00.979870081,-16.0,62.0,6.0
1904-01-01 00:13:03.068747081,E4_Acc,2024-06-25 12:46:01.011120081,-16.0,62.0,6.0
1904-01-01 00:13:03.099997081,E4_Acc,2024-06-25 12:46:01.042370081,-16.0,62.0,6.0
1904-01-01 00:13:03.131247081,E4_Acc,2024-06-25 12:46:01.073620081,-16.0,62.0,7.0
1904-01-01 00:13:03.162497081,E4_Acc,2024-06-25 12:46:01.104870081,-16.0,62.0,6.0
1904-01-01 00:13:03.193747081,E4_Acc,2024-06-25 12:46:01.136120081,-16.0,62.0,6.0
1904-01-01 00:13:03.225007095,E4_Acc,2024-06-25 12:46:01.167380095,-16.0,62.0,6.0
1904-01-01 00:13:03.256257095,E4_Acc,2024-06-25 12:46:01.198630095,-16.0,62.0,6.0
1904-01-01 00:13:03.287507095,E4_Acc,2024-06-25 12:46:01.229880095,-16.0,62.0,6.0
1904-01-01 00:13:03.318757095,E4_Acc,2024-06-25 12:46:01.261130095,-16.0,62.0,5.0
1904-01-01 00:13:03.350007095,E4_Acc,2024-06-25 12:46:01.292380095,-16.0,62.0,6.0
1904-01-01 00:13:03.381257095,E4_Acc,2024-06-25 12:46:01.323630095,-16.0,63.0,6.0
1904-01-01 00:13:03.412507095,E4_Acc,2024-06-25 12:46:01.354880095,-16.0,62.0,6.0
1904-01-01 00:13:03.443767108,E4_Acc,2024-06-25 12:46:01.386140108,-16.0,62.0,7.0
1904-01-01 00:13:03.475017108,E4_Acc,2024-06-25 12:46:01.417390108,-16.0,62.0,7.0
1904-01-01 00:13:03.506267108,E4_Acc,2024-06-25 12:46:01.448640108,-16.0,62.0,7.0
1904-01-01 00:13:03.537517108,E4_Acc,2024-06-25 12:46:01.479890108,-16.0,62.0,6.0
1904-01-01 00:13:03.568767108,E4_Acc,2024-06-25 12:46:01.511140108,-16.0,62.0,7.0
1904-01-01 00:13:03.600017108,E4_Acc,2024-06-25 12:46:01.542390108,-16.0,62.0,6.0
1904-01-01 00:13:03.631267108,E4_Acc,2024-06-25 12:46:01.573640108,-16.0,62.0,6.0
1904-01-01 00:13:03.662526883,E4_Acc,2024-06-25 12:46:01.604899883,-16.0,62.0,6.0
1904-01-01 00:13:03.693776883,E4_Acc,2024-06-25 12:46:01.636149883,-17.0,62.0,6.0
1904-01-01 00:13:03.725026883,E4_Acc,2024-06-25 12:46:01.667399883,-17.0,62.0,6.0
1904-01-01 00:13:03.756276883,E4_Acc,2024-06-25 12:46:01.698649883,-16.0,62.0,7.0
1904-01-01 00:13:03.787526883,E4_Acc,2024-06-25 12:46:01.729899883,-17.0,62.0,7.0
1904-01-01 00:13:03.818776883,E4_Acc,2024-06-25 12:46:01.761149883,-17.0,62.0,7.0
1904-01-01 00:13:03.850026883,E4_Acc,2024-06-25 12:46:01.792399883,-16.0,62.0,7.0
1904-01-01 00:13:03.881286897,E4_Acc,2024-06-25 12:46:01.823659897,-17.0,62.0,7.0
1904-01-01 00:13:03.912536897,E4_Acc,2024-06-25 12:46:01.854909897,-16.0,62.0,7.0
1904-01-01 00:13:03.943786897,E4_Acc,2024-06-25 12:46:01.886159897,-16.0,62.0,7.0
1904-01-01 00:13:03.975036897,E4_Acc,2024-06-25 12:46:01.917409897,-16.0,62.0,7.0
1904-01-01 00:13:04.006286897,E4_Acc,2024-06-25 12:46:01.948659897,-16.0,62.0,7.0
1904-01-01 00:13:04.037536897,E4_Acc,2024-06-25 12:46:01.979909897,-16.0,62.0,7.0
1904-01-01 00:13:04.068786897,E4_Acc,2024-06-25 12:46:02.011159897,-16.0,62.0,6.0
1904-01-01 00:13:04.100046910,E4_Acc,2024-06-25 12:46:02.042419910,-16.0,62.0,6.0
1904-01-01 00:13:04.131296910,E4_Acc,2024-06-25 12:46:02.073669910,-16.0,62.0,6.0
1904-01-01 00:13:04.162546910,E4_Acc,2024-06-25 12:46:02.104919910,-16.0,62.0,7.0
1904-01-01 00:13:04.193796910,E4_Acc,2024-06-25 12:46:02.136169910,-16.0,62.0,6.0
1904-01-01 00:13:04.225046910,E4_Acc,2024-06-25 12:46:02.167419910,-16.0,62.0,6.0
1904-01-01 00:13:04.256296910,E4_Acc,2024-06-25 12:46:02.198669910,-16.0,62.0,6.0
1904-01-01 00:13:04.287546910,E4_Acc,2024-06-25 12:46:02.229919910,-16.0,62.0,6.0
1904-01-01 00:13:04.318806924,E4_Acc,2024-06-25 12:46:02.261179924,-16.0,62.0,7.0
1904-01-01 00:13:04.350056924,E4_Acc,2024-06-25 12:46:02.292429924,-16.0,62.0,7.0
1904-01-01 00:13:04.381306924,E4_Acc,2024-06-25 12:46:02.323679924,-16.0,62.0,7.0
1904-01-01 00:13:04.412556924,E4_Acc,2024-06-25 12:46:02.354929924,-16.0,62.0,7.0
1904-01-01 00:13:04.443806924,E4_Acc,2024-06-25 12:46:02.386179924,-16.0,62.0,7.0
1904-01-01 00:13:04.475056924,E4_Acc,2024-06-25 12:46:02.417429924,-16.0,62.0,7.0
1904-01-01 00:13:04.506306924,E4_Acc,2024-06-25 12:46:02.448679924,-16.0,62.0,7.0
1904-01-01 00:13:04.537566938,E4_Acc,2024-06-25 12:46:02.479939938,-16.0,62.0,7.0
1904-01-01 00:13:04.568816938,E4_Acc,2024-06-25 12:46:02.511189938,-16.0,62.0,7.0
1904-01-01 00:13:04.600066938,E4_Acc,2024-06-25 12:46:02.542439938,-16.0,62.0,7.0
1904-01-01 00:13:04.631316938,E4_Acc,2024-06-25 12:46:02.573689938,-16.0,62.0,7.0
1904-01-01 00:13:04.662566938,E4_Acc,2024-06-25 12:46:02.604939938,-16.0,62.0,7.0
1904-01-01 00:13:04.693816938,E4_Acc,2024-06-25 12:46:02.636189938,-16.0,62.0,7.0
1904-01-01 00:13:04.725066938,E4_Acc,2024-06-25 12:46:02.667439938,-16.0,62.0,7.0
1904-01-01 00:13:04.756326951,E4_Acc,2024-06-25 12:46:02.698699951,-16.0,62.0,7.0
1904-01-01 00:13:04.787576951,E4_Acc,2024-06-25 12:46:02.729949951,-16.0,62.0,7.0
1904-01-01 00:13:04.818826951,E4_Acc,2024-06-25 12:46:02.761199951,-16.0,62.0,7.0
1904-01-01 00:13:04.850076951,E4_Acc,2024-06-25 12:46:02.792449951,-16.0,62.0,7.0
1904-01-01 00:13:04.881326951,E4_Acc,2024-06-25 12:46:02.823699951,-16.0,62.0,7.0
1904-01-01 00:13:04.912576951,E4_Acc,2024-06-25 12:46:02.854949951,-16.0,62.0,7.0
1904-01-01 00:13:04.943826951,E4_Acc,2024-06-25 12:46:02.886199951,-16.0,62.0,7.0
1904-01-01 00:13:04.975086965,E4_Acc,2024-06-25 12:46:02.917459965,-16.0,62.0,7.0
1904-01-01 00:13:05.006336965,E4_Acc,2024-06-25 12:46:02.948709965,-16.0,62.0,7.0
1904-01-01 00:13:05.037586965,E4_Acc,2024-06-25 12:46:02.979959965,-16.0,62.0,7.0
1904-01-01 00:13:05.068836965,E4_Acc,2024-06-25 12:46:03.011209965,-16.0,62.0,7.0
1904-01-01 00:13:05.100086965,E4_Acc,2024-06-25 12:46:03.042459965,-16.0,62.0,7.0
1904-01-01 00:13:05.131336965,E4_Acc,2024-06-25 12:46:03.073709965,-16.0,62.0,7.0
1904-01-01 00:13:05.162586965,E4_Acc,2024-06-25 12:46:03.104959965,-16.0,62.0,7.0
1904-01-01 00:13:05.193846978,E4_Acc,2024-06-25 12:46:03.136219978,-17.0,62.0,7.0
1904-01-01 00:13:05.225096978,E4_Acc,2024-06-25 12:46:03.167469978,-16.0,62.0,7.0
1904-01-01 00:13:05.256346978,E4_Acc,2024-06-25 12:46:03.198719978,-16.0,62.0,7.0
1904-01-01 00:13:05.287596978,E4_Acc,2024-06-25 12:46:03.229969978,-16.0,62.0,7.0
1904-01-01 00:13:05.318846978,E4_Acc,2024-06-25 12:46:03.261219978,-16.0,62.0,7.0
1904-01-01 00:13:05.350096978,E4_Acc,2024-06-25 12:46:03.292469978,-16.0,62.0,7.0
1904-01-01 00:13:05.381346978,E4_Acc,2024-06-25 12:46:03.323719978,-16.0,62.0,7.0
1904-01-01 00:13:05.412606992,E4_Acc,2024-06-25 12:46:03.354979992,-16.0,62.0,7.0
1904-01-01 00:13:05.443856992,E4_Acc,2024-06-25 12:46:03.386229992,-16.0,62.0,7.0
1904-01-01 00:13:05.475106992,E4_Acc,2024-06-25 12:46:03.417479992,-16.0,62.0,7.0
1904-01-01 00:13:05.506356992,E4_Acc,2024-06-25 12:46:03.448729992,-16.0,62.0,7.0
1904-01-01 00:13:05.537606992,E4_Acc,2024-06-25 12:46:03.479979992,-16.0,62.0,7.0
1904-01-01 00:13:05.568856991,E4_Acc,2024-06-25 12:46:03.511229991,-16.0,62.0,7.0
1904-01-01 00:13:05.600117005,E4_Acc,2024-06-25 12:46:03.542490005,-16.0,62.0,7.0
1904-01-01 00:13:05.631367005,E4_Acc,2024-06-25 12:46:03.573740005,-16.0,62.0,7.0
1904-01-01 00:13:05.662617005,E4_Acc,2024-06-25 12:46:03.604990005,-16.0,62.0,7.0
1904-01-01 00:13:05.693867005,E4_Acc,2024-06-25 12:46:03.636240005,-16.0,62.0,7.0
1904-01-01 00:13:05.725117005,E4_Acc,2024-06-25 12:46:03.667490005,-16.0,62.0,8.0
1904-01-01 00:13:05.756367005,E4_Acc,2024-06-25 12:46:03.698740005,-16.0,62.0,7.0
1904-01-01 00:13:05.787617005,E4_Acc,2024-06-25 12:46:03.729990005,-16.0,62.0,7.0
1904-01-01 00:13:05.818877019,E4_Acc,2024-06-25 12:46:03.761250019,-16.0,62.0,7.0
1904-01-01 00:13:05.850127019,E4_Acc,2024-06-25 12:46:03.792500019,-16.0,62.0,7.0
1904-01-01 00:13:05.881377019,E4_Acc,2024-06-25 12:46:03.823750019,-16.0,62.0,7.0
1904-01-01 00:13:05.912627019,E4_Acc,2024-06-25 12:46:03.855000019,-16.0,62.0,7.0
1904-01-01 00:13:05.943877019,E4_Acc,2024-06-25 12:46:03.886250019,-16.0,62.0,7.0
1904-01-01 00:13:05.975127019,E4_Acc,2024-06-25 12:46:03.917500019,-16.0,62.0,7.0
1904-01-01 00:13:06.006377019,E4_Acc,2024-06-25 12:46:03.948750019,-16.0,62.0,7.0
1904-01-01 00:13:06.037637033,E4_Acc,2024-06-25 12:46:03.980010033,-16.0,62.0,7.0
1904-01-01 00:13:06.068887033,E4_Acc,2024-06-25 12:46:04.011260033,-16.0,62.0,8.0
1904-01-01 00:13:06.100137033,E4_Acc,2024-06-25 12:46:04.042510033,-17.0,62.0,7.0
1904-01-01 00:13:06.131387033,E4_Acc,2024-06-25 12:46:04.073760033,-17.0,62.0,7.0
1904-01-01 00:13:06.162637033,E4_Acc,2024-06-25 12:46:04.105010033,-17.0,62.0,7.0
1904-01-01 00:13:06.193887033,E4_Acc,2024-06-25 12:46:04.136260033,-17.0,62.0,7.0
1904-01-01 00:13:06.225137033,E4_Acc,2024-06-25 12:46:04.167510033,-17.0,62.0,7.0
1904-01-01 00:13:06.256397046,E4_Acc,2024-06-25 12:46:04.198770046,-16.0,62.0,7.0
1904-01-01 00:13:06.287647046,E4_Acc,2024-06-25 12:46:04.230020046,-16.0,62.0,7.0
1904-01-01 00:13:06.318897045,E4_Acc,2024-06-25 12:46:04.261270045,-16.0,62.0,7.0
1904-01-01 00:13:06.350147046,E4_Acc,2024-06-25 12:46:04.292520046,-16.0,63.0,7.0
1904-01-01 00:13:06.381397046,E4_Acc,2024-06-25 12:46:04.323770046,-17.0,62.0,7.0
1904-01-01 00:13:06.412647046,E4_Acc,2024-06-25 12:46:04.355020046,-16.0,62.0,8.0
1904-01-01 00:13:06.443897046,E4_Acc,2024-06-25 12:46:04.386270046,-17.0,62.0,8.0
1904-01-01 00:13:06.475157060,E4_Acc,2024-06-25 12:46:04.417530060,-17.0,61.0,8.0
1904-01-01 00:13:06.506407060,E4_Acc,2024-06-25 12:46:04.448780060,-17.0,61.0,8.0
1904-01-01 00:13:06.537657060,E4_Acc,2024-06-25 12:46:04.480030060,-17.0,61.0,7.0
1904-01-01 00:13:06.568907060,E4_Acc,2024-06-25 12:46:04.511280060,-17.0,62.0,7.0
1904-01-01 00:13:06.600157060,E4_Acc,2024-06-25 12:46:04.542530060,-17.0,62.0,7.0
1904-01-01 00:13:06.631407060,E4_Acc,2024-06-25 12:46:04.573780060,-17.0,62.0,7.0
1904-01-01 00:13:06.662657060,E4_Acc,2024-06-25 12:46:04.605030060,-17.0,62.0,7.0
1904-01-01 00:13:06.693917073,E4_Acc,2024-06-25 12:46:04.636290073,-16.0,62.0,7.0
1904-01-01 00:13:06.725167073,E4_Acc,2024-06-25 12:46:04.667540073,-16.0,62.0,7.0
1904-01-01 00:13:06.756417073,E4_Acc,2024-06-25 12:46:04.698790073,-16.0,62.0,8.0
1904-01-01 00:13:06.787667073,E4_Acc,2024-06-25 12:46:04.730040073,-17.0,62.0,8.0
1904-01-01 00:13:06.818917073,E4_Acc,2024-06-25 12:46:04.761290073,-17.0,63.0,8.0
1904-01-01 00:13:06.850167073,E4_Acc,2024-06-25 12:46:04.792540073,-16.0,62.0,8.0
1904-01-01 00:13:06.881417073,E4_Acc,2024-06-25 12:46:04.823790073,-17.0,62.0,7.0
1904-01-01 00:13:06.912677087,E4_Acc,2024-06-25 12:46:04.855050087,-17.0,62.0,7.0
1904-01-01 00:13:06.943927087,E4_Acc,2024-06-25 12:46:04.886300087,-17.0,62.0,7.0
1904-01-01 00:13:06.975177087,E4_Acc,2024-06-25 12:46:04.917550087,-17.0,62.0,7.0
1904-01-01 00:13:07.006427087,E4_Acc,2024-06-25 12:46:04.948800087,-17.0,62.0,7.0
1904-01-01 00:13:07.037677087,E4_Acc,2024-06-25 12:46:04.980050087,-17.0,62.0,7.0
1904-01-01 00:13:07.068927087,E4_Acc,2024-06-25 12:46:05.011300087,-17.0,62.0,7.0
1904-01-01 00:13:07.100177087,E4_Acc,2024-06-25 12:46:05.042550087,-16.0,62.0,7.0
1904-01-01 00:13:07.131437101,E4_Acc,2024-06-25 12:46:05.073810101,-16.0,62.0,7.0
1904-01-01 00:13:07.162687101,E4_Acc,2024-06-25 12:46:05.105060101,-16.0,62.0,7.0
1904-01-01 00:13:07.193937101,E4_Acc,2024-06-25 12:46:05.136310101,-17.0,62.0,7.0
1904-01-01 00:13:07.225187101,E4_Acc,2024-06-25 12:46:05.167560101,-16.0,62.0,7.0
1904-01-01 00:13:07.256437101,E4_Acc,2024-06-25 12:46:05.198810101,-16.0,62.0,7.0
1904-01-01 00:13:07.287687101,E4_Acc,2024-06-25 12:46:05.230060101,-16.0,62.0,7.0
1904-01-01 00:13:07.318937101,E4_Acc,2024-06-25 12:46:05.261310101,-16.0,62.0,7.0
1904-01-01 00:13:07.350197114,E4_Acc,2024-06-25 12:46:05.292570114,-16.0,62.0,7.0
1904-01-01 00:13:07.381447114,E4_Acc,2024-06-25 12:46:05.323820114,-16.0,62.0,7.0
1904-01-01 00:13:07.412697114,E4_Acc,2024-06-25 12:46:05.355070114,-16.0,62.0,7.0
1904-01-01 00:13:07.443947114,E4_Acc,2024-06-25 12:46:05.386320114,-16.0,62.0,8.0
1904-01-01 00:13:07.475197114,E4_Acc,2024-06-25 12:46:05.417570114,-16.0,62.0,8.0
1904-01-01 00:13:07.506447114,E4_Acc,2024-06-25 12:46:05.448820114,-16.0,62.0,7.0
1904-01-01 00:13:07.537697114,E4_Acc,2024-06-25 12:46:05.480070114,-16.0,62.0,7.0
1904-01-01 00:13:07.568956889,E4_Acc,2024-06-25 12:46:05.511329889,-16.0,62.0,7.0
1904-01-01 00:13:07.600206889,E4_Acc,2024-06-25 12:46:05.542579889,-16.0,62.0,7.0
1904-01-01 00:13:07.631456889,E4_Acc,2024-06-25 12:46:05.573829889,-16.0,62.0,7.0
1904-01-01 00:13:07.662706889,E4_Acc,2024-06-25 12:46:05.605079889,-16.0,62.0,7.0
1904-01-01 00:13:07.693956889,E4_Acc,2024-06-25 12:46:05.636329889,-16.0,62.0,7.0
1904-01-01 00:13:07.725206889,E4_Acc,2024-06-25 12:46:05.667579889,-16.0,62.0,7.0
1904-01-01 00:13:07.756456889,E4_Acc,2024-06-25 12:46:05.698829889,-16.0,62.0,7.0
1904-01-01 00:13:07.787716903,E4_Acc,2024-06-25 12:46:05.730089903,-16.0,62.0,7.0
1904-01-01 00:13:07.818966903,E4_Acc,2024-06-25 12:46:05.761339903,-16.0,62.0,7.0
1904-01-01 00:13:07.850216903,E4_Acc,2024-06-25 12:46:05.792589903,-16.0,62.0,7.0
1904-01-01 00:13:07.881466903,E4_Acc,2024-06-25 12:46:05.823839903,-16.0,62.0,7.0
1904-01-01 00:13:07.912716903,E4_Acc,2024-06-25 12:46:05.855089903,-16.0,62.0,7.0
1904-01-01 00:13:07.943966903,E4_Acc,2024-06-25 12:46:05.886339903,-17.0,62.0,7.0
1904-01-01 00:13:07.975226916,E4_Acc,2024-06-25 12:46:05.917599916,-16.0,62.0,7.0
1904-01-01 00:13:08.006476916,E4_Acc,2024-06-25 12:46:05.948849916,-16.0,62.0,7.0
1904-01-01 00:13:08.037726916,E4_Acc,2024-06-25 12:46:05.980099916,-16.0,62.0,7.0
1904-01-01 00:13:08.068976916,E4_Acc,2024-06-25 12:46:06.011349916,-16.0,62.0,7.0
1904-01-01 00:13:08.100226916,E4_Acc,2024-06-25 12:46:06.042599916,-16.0,62.0,7.0
1904-01-01 00:13:08.131476916,E4_Acc,2024-06-25 12:46:06.073849916,-16.0,62.0,7.0
1904-01-01 00:13:08.162726916,E4_Acc,2024-06-25 12:46:06.105099916,-16.0,62.0,7.0
1904-01-01 00:13:08.193986930,E4_Acc,2024-06-25 12:46:06.136359930,-16.0,63.0,7.0
1904-01-01 00:13:08.225236930,E4_Acc,2024-06-25 12:46:06.167609930,-16.0,62.0,7.0
1904-01-01 00:13:08.256486930,E4_Acc,2024-06-25 12:46:06.198859930,-16.0,62.0,7.0
1904-01-01 00:13:08.287736930,E4_Acc,2024-06-25 12:46:06.230109930,-16.0,62.0,7.0
1904-01-01 00:13:08.318986930,E4_Acc,2024-06-25 12:46:06.261359930,-16.0,62.0,7.0
1904-01-01 00:13:08.350236930,E4_Acc,2024-06-25 12:46:06.292609930,-16.0,62.0,7.0
1904-01-01 00:13:08.381486930,E4_Acc,2024-06-25 12:46:06.323859930,-16.0,62.0,7.0
1904-01-01 00:13:08.412746944,E4_Acc,2024-06-25 12:46:06.355119944,-16.0,62.0,7.0
1904-01-01 00:13:08.443996944,E4_Acc,2024-06-25 12:46:06.386369944,-16.0,62.0,6.0
1904-01-01 00:13:08.475246944,E4_Acc,2024-06-25 12:46:06.417619944,-16.0,62.0,7.0
1904-01-01 00:13:08.506496944,E4_Acc,2024-06-25 12:46:06.448869944,-16.0,62.0,7.0
1904-01-01 00:13:08.537746944,E4_Acc,2024-06-25 12:46:06.480119944,-16.0,62.0,7.0
1904-01-01 00:13:08.568996944,E4_Acc,2024-06-25 12:46:06.511369944,-16.0,63.0,7.0
1904-01-01 00:13:08.600246944,E4_Acc,2024-06-25 12:46:06.542619944,-16.0,62.0,7.0
1904-01-01 00:13:08.631506957,E4_Acc,2024-06-25 12:46:06.573879957,-16.0,62.0,6.0
1904-01-01 00:13:08.662756957,E4_Acc,2024-06-25 12:46:06.605129957,-16.0,62.0,6.0
1904-01-01 00:13:08.694006957,E4_Acc,2024-06-25 12:46:06.636379957,-16.0,62.0,6.0
1904-01-01 00:13:08.725256957,E4_Acc,2024-06-25 12:46:06.667629957,-16.0,62.0,6.0
1904-01-01 00:13:08.756506957,E4_Acc,2024-06-25 12:46:06.698879957,-16.0,62.0,6.0
1904-01-01 00:13:08.787756957,E4_Acc,2024-06-25 12:46:06.730129957,-16.0,62.0,6.0
1904-01-01 00:13:08.819006957,E4_Acc,2024-06-25 12:46:06.761379957,-16.0,62.0,6.0
1904-01-01 00:13:08.850266971,E4_Acc,2024-06-25 12:46:06.792639971,-16.0,62.0,6.0
1904-01-01 00:13:08.881516971,E4_Acc,2024-06-25 12:46:06.823889971,-16.0,62.0,6.0
1904-01-01 00:13:08.912766971,E4_Acc,2024-06-25 12:46:06.855139971,-16.0,62.0,6.0
1904-01-01 00:13:08.944016971,E4_Acc,2024-06-25 12:46:06.886389971,-16.0,62.0,6.0
1904-01-01 00:13:08.975266971,E4_Acc,2024-06-25 12:46:06.917639971,-16.0,62.0,6.0
1904-01-01 00:13:09.006516971,E4_Acc,2024-06-25 12:46:06.948889971,-16.0,62.0,6.0
1904-01-01 00:13:09.037766971,E4_Acc,2024-06-25 12:46:06.980139971,-16.0,62.0,6.0
1904-01-01 00:13:09.069026984,E4_Acc,2024-06-25 12:46:07.011399984,-16.0,62.0,6.0
1904-01-01 00:13:09.100276984,E4_Acc,2024-06-25 12:46:07.042649984,-16.0,62.0,6.0
1904-01-01 00:13:09.131526984,E4_Acc,2024-06-25 12:46:07.073899984,-16.0,62.0,6.0
1904-01-01 00:13:09.162776984,E4_Acc,2024-06-25 12:46:07.105149984,-16.0,62.0,6.0
1904-01-01 00:13:09.194026984,E4_Acc,2024-06-25 12:46:07.136399984,-16.0,62.0,6.0
1904-01-01 00:13:09.225276984,E4_Acc,2024-06-25 12:46:07.167649984,-16.0,62.0,6.0
1904-01-01 00:13:09.256526984,E4_Acc,2024-06-25 12:46:07.198899984,-16.0,62.0,6.0
1904-01-01 00:13:09.287786998,E4_Acc,2024-06-25 12:46:07.230159998,-16.0,62.0,6.0
1904-01-01 00:13:09.319036997,E4_Acc,2024-06-25 12:46:07.261409997,-16.0,63.0,6.0
1904-01-01 00:13:09.350286998,E4_Acc,2024-06-25 12:46:07.292659998,-16.0,62.0,6.0
1904-01-01 00:13:09.381536998,E4_Acc,2024-06-25 12:46:07.323909998,-16.0,62.0,6.0
1904-01-01 00:13:09.412786998,E4_Acc,2024-06-25 12:46:07.355159998,-16.0,62.0,6.0
1904-01-01 00:13:09.444036998,E4_Acc,2024-06-25 12:46:07.386409998,-16.0,62.0,6.0
1904-01-01 00:13:09.475286998,E4_Acc,2024-06-25 12:46:07.417659998,-16.0,62.0,6.0
1904-01-01 00:13:09.506547012,E4_Acc,2024-06-25 12:46:07.448920012,-16.0,62.0,7.0
1904-01-01 00:13:09.537797012,E4_Acc,2024-06-25 12:46:07.480170012,-16.0,62.0,7.0
1904-01-01 00:13:09.569047012,E4_Acc,2024-06-25 12:46:07.511420012,-16.0,62.0,7.0
1904-01-01 00:13:09.600297012,E4_Acc,2024-06-25 12:46:07.542670012,-16.0,62.0,7.0
1904-01-01 00:13:09.631547012,E4_Acc,2024-06-25 12:46:07.573920012,-16.0,62.0,7.0
1904-01-01 00:13:09.662797012,E4_Acc,2024-06-25 12:46:07.605170012,-16.0,62.0,7.0
1904-01-01 00:13:09.694047012,E4_Acc,2024-06-25 12:46:07.636420012,-16.0,62.0,7.0
1904-01-01 00:13:09.725307025,E4_Acc,2024-06-25 12:46:07.667680025,-16.0,62.0,7.0
1904-01-01 00:13:09.756557025,E4_Acc,2024-06-25 12:46:07.698930025,-16.0,62.0,7.0
1904-01-01 00:13:09.787807025,E4_Acc,2024-06-25 12:46:07.730180025,-16.0,62.0,7.0
1904-01-01 00:13:09.819057025,E4_Acc,2024-06-25 12:46:07.761430025,-16.0,62.0,6.0
1904-01-01 00:13:09.850307025,E4_Acc,2024-06-25 12:46:07.792680025,-16.0,62.0,6.0
1904-01-01 00:13:09.881557025,E4_Acc,2024-06-25 12:46:07.823930025,-16.0,62.0,6.0
1904-01-01 00:13:09.912807025,E4_Acc,2024-06-25 12:46:07.855180025,-16.0,62.0,7.0
1904-01-01 00:13:09.944067039,E4_Acc,2024-06-25 12:46:07.886440039,-16.0,62.0,6.0
1904-01-01 00:13:09.975317039,E4_Acc,2024-06-25 12:46:07.917690039,-16.0,62.0,7.0
1904-01-01 00:13:10.006567039,E4_Acc,2024-06-25 12:46:07.948940039,-16.0,62.0,7.0
1904-01-01 00:13:10.037817039,E4_Acc,2024-06-25 12:46:07.980190039,-16.0,62.0,7.0
1904-01-01 00:13:10.069067039,E4_Acc,2024-06-25 12:46:08.011440039,-16.0,62.0,7.0
1904-01-01 00:13:10.100317039,E4_Acc,2024-06-25 12:46:08.042690039,-16.0,62.0,7.0
1904-01-01 00:13:10.131567039,E4_Acc,2024-06-25 12:46:08.073940039,-16.0,62.0,7.0
1904-01-01 00:13:10.162827052,E4_Acc,2024-06-25 12:46:08.105200052,-16.0,62.0,7.0
1904-01-01 00:13:10.194077052,E4_Acc,2024-06-25 12:46:08.136450052,-16.0,62.0,7.0
1904-01-01 00:13:10.225327052,E4_Acc,2024-06-25 12:46:08.167700052,-17.0,62.0,7.0
1904-01-01 00:13:10.256577052,E4_Acc,2024-06-25 12:46:08.198950052,-16.0,62.0,7.0
1904-01-01 00:13:10.287827052,E4_Acc,2024-06-25 12:46:08.230200052,-16.0,62.0,7.0
1904-01-01 00:13:10.319077052,E4_Acc,2024-06-25 12:46:08.261450052,-16.0,62.0,6.0
1904-01-01 00:13:10.350337066,E4_Acc,2024-06-25 12:46:08.292710066,-16.0,62.0,7.0
1904-01-01 00:13:10.381587066,E4_Acc,2024-06-25 12:46:08.323960066,-16.0,62.0,7.0
1904-01-01 00:13:10.412837066,E4_Acc,2024-06-25 12:46:08.355210066,-16.0,62.0,7.0
1904-01-01 00:13:10.444087066,E4_Acc,2024-06-25 12:46:08.386460066,-16.0,62.0,7.0
1904-01-01 00:13:10.475337066,E4_Acc,2024-06-25 12:46:08.417710066,-16.0,63.0,7.0
1904-01-01 00:13:10.506587066,E4_Acc,2024-06-25 12:46:08.448960066,-17.0,62.0,7.0
1904-01-01 00:13:10.537837066,E4_Acc,2024-06-25 12:46:08.480210066,-17.0,62.0,7.0
1904-01-01 00:13:10.569097078,E4_Acc,2024-06-25 12:46:08.511470078,-17.0,62.0,7.0
1904-01-01 00:13:10.600347079,E4_Acc,2024-06-25 12:46:08.542720079,-17.0,62.0,7.0
1904-01-01 00:13:10.631597079,E4_Acc,2024-06-25 12:46:08.573970079,-17.0,62.0,7.0
1904-01-01 00:13:10.662847079,E4_Acc,2024-06-25 12:46:08.605220079,-17.0,62.0,6.0
1904-01-01 00:13:10.694097079,E4_Acc,2024-06-25 12:46:08.636470079,-16.0,62.0,7.0
1904-01-01 00:13:10.725347079,E4_Acc,2024-06-25 12:46:08.667720079,-16.0,62.0,7.0
1904-01-01 00:13:10.756597079,E4_Acc,2024-06-25 12:46:08.698970079,-16.0,62.0,7.0
1904-01-01 00:13:10.787857093,E4_Acc,2024-06-25 12:46:08.730230093,-16.0,62.0,7.0
1904-01-01 00:13:10.819107093,E4_Acc,2024-06-25 12:46:08.761480093,-17.0,62.0,7.0
1904-01-01 00:13:10.850357093,E4_Acc,2024-06-25 12:46:08.792730093,-17.0,62.0,7.0
1904-01-01 00:13:10.881607093,E4_Acc,2024-06-25 12:46:08.823980093,-17.0,62.0,7.0
1904-01-01 00:13:10.912857093,E4_Acc,2024-06-25 12:46:08.855230093,-17.0,62.0,7.0
1904-01-01 00:13:10.944107093,E4_Acc,2024-06-25 12:46:08.886480093,-17.0,62.0,7.0
1904-01-01 00:13:10.975357093,E4_Acc,2024-06-25 12:46:08.917730093,-17.0,62.0,7.0
1904-01-01 00:13:11.006617107,E4_Acc,2024-06-25 12:46:08.948990107,-17.0,62.0,7.0
1904-01-01 00:13:11.037867107,E4_Acc,2024-06-25 12:46:08.980240107,-17.0,62.0,7.0
1904-01-01 00:13:11.069117107,E4_Acc,2024-06-25 12:46:09.011490107,-17.0,62.0,7.0
1904-01-01 00:13:11.100367107,E4_Acc,2024-06-25 12:46:09.042740107,-17.0,62.0,7.0
1904-01-01 00:13:11.131617107,E4_Acc,2024-06-25 12:46:09.073990107,-16.0,62.0,7.0
1904-01-01 00:13:11.162867107,E4_Acc,2024-06-25 12:46:09.105240107,-17.0,62.0,7.0
1904-01-01 00:13:11.194117107,E4_Acc,2024-06-25 12:46:09.136490107,-17.0,62.0,7.0
1904-01-01 00:13:11.225376882,E4_Acc,2024-06-25 12:46:09.167749882,-17.0,62.0,7.0
1904-01-01 00:13:11.256626882,E4_Acc,2024-06-25 12:46:09.198999882,-17.0,62.0,7.0
1904-01-01 00:13:11.287876882,E4_Acc,2024-06-25 12:46:09.230249882,-17.0,62.0,7.0
1904-01-01 00:13:11.319126882,E4_Acc,2024-06-25 12:46:09.261499882,-17.0,62.0,7.0
1904-01-01 00:13:11.350376882,E4_Acc,2024-06-25 12:46:09.292749882,-17.0,62.0,7.0
1904-01-01 00:13:11.381626882,E4_Acc,2024-06-25 12:46:09.323999882,-17.0,62.0,7.0
1904-01-01 00:13:11.412876882,E4_Acc,2024-06-25 12:46:09.355249882,-17.0,62.0,7.0
1904-01-01 00:13:11.444136895,E4_Acc,2024-06-25 12:46:09.386509895,-17.0,62.0,7.0
1904-01-01 00:13:11.475386895,E4_Acc,2024-06-25 12:46:09.417759895,-16.0,62.0,7.0
1904-01-01 00:13:11.506636895,E4_Acc,2024-06-25 12:46:09.449009895,-16.0,62.0,7.0
1904-01-01 00:13:11.537886895,E4_Acc,2024-06-25 12:46:09.480259895,-17.0,62.0,7.0
1904-01-01 00:13:11.569136895,E4_Acc,2024-06-25 12:46:09.511509895,-17.0,62.0,7.0
1904-01-01 00:13:11.600386895,E4_Acc,2024-06-25 12:46:09.542759895,-17.0,62.0,7.0
1904-01-01 00:13:11.631636895,E4_Acc,2024-06-25 12:46:09.574009895,-17.0,62.0,7.0
1904-01-01 00:13:11.662896909,E4_Acc,2024-06-25 12:46:09.605269909,-17.0,62.0,7.0
1904-01-01 00:13:11.694146909,E4_Acc,2024-06-25 12:46:09.636519909,-17.0,62.0,7.0
1904-01-01 00:13:11.725396909,E4_Acc,2024-06-25 12:46:09.667769909,-17.0,62.0,7.0
1904-01-01 00:13:11.756646909,E4_Acc,2024-06-25 12:46:09.699019909,-17.0,62.0,8.0
1904-01-01 00:13:11.787896909,E4_Acc,2024-06-25 12:46:09.730269909,-17.0,62.0,8.0
1904-01-01 00:13:11.819146909,E4_Acc,2024-06-25 12:46:09.761519909,-17.0,62.0,7.0
1904-01-01 00:13:11.850396909,E4_Acc,2024-06-25 12:46:09.792769909,-17.0,62.0,8.0
1904-01-01 00:13:11.881656922,E4_Acc,2024-06-25 12:46:09.824029922,-17.0,62.0,7.0
1904-01-01 00:13:11.912906922,E4_Acc,2024-06-25 12:46:09.855279922,-17.0,62.0,7.0
1904-01-01 00:13:11.944156922,E4_Acc,2024-06-25 12:46:09.886529922,-17.0,62.0,7.0
1904-01-01 00:13:11.975406922,E4_Acc,2024-06-25 12:46:09.917779922,-16.0,62.0,7.0
1904-01-01 00:13:12.006656922,E4_Acc,2024-06-25 12:46:09.949029922,-17.0,62.0,7.0
1904-01-01 00:13:12.037906922,E4_Acc,2024-06-25 12:46:09.980279922,-16.0,62.0,7.0
1904-01-01 00:13:12.069156922,E4_Acc,2024-06-25 12:46:10.011529922,-17.0,62.0,7.0
1904-01-01 00:13:12.100416936,E4_Acc,2024-06-25 12:46:10.042789936,-17.0,62.0,7.0
1904-01-01 00:13:12.131666936,E4_Acc,2024-06-25 12:46:10.074039936,-17.0,62.0,7.0
1904-01-01 00:13:12.162916936,E4_Acc,2024-06-25 12:46:10.105289936,-17.0,62.0,7.0
1904-01-01 00:13:12.194166936,E4_Acc,2024-06-25 12:46:10.136539936,-17.0,62.0,8.0
1904-01-01 00:13:12.225416936,E4_Acc,2024-06-25 12:46:10.167789936,-17.0,62.0,7.0
1904-01-01 00:13:12.256666936,E4_Acc,2024-06-25 12:46:10.199039936,-17.0,62.0,7.0
1904-01-01 00:13:12.287916936,E4_Acc,2024-06-25 12:46:10.230289936,-17.0,62.0,7.0
1904-01-01 00:13:12.319176949,E4_Acc,2024-06-25 12:46:10.261549949,-17.0,62.0,7.0
1904-01-01 00:13:12.350426950,E4_Acc,2024-06-25 12:46:10.292799950,-17.0,62.0,7.0
1904-01-01 00:13:12.381676950,E4_Acc,2024-06-25 12:46:10.324049950,-17.0,62.0,7.0
1904-01-01 00:13:12.412926950,E4_Acc,2024-06-25 12:46:10.355299950,-17.0,62.0,7.0
1904-01-01 00:13:12.444176950,E4_Acc,2024-06-25 12:46:10.386549950,-17.0,62.0,8.0
1904-01-01 00:13:12.475426950,E4_Acc,2024-06-25 12:46:10.417799950,-16.0,62.0,7.0
1904-01-01 00:13:12.506676950,E4_Acc,2024-06-25 12:46:10.449049950,-17.0,62.0,7.0
1904-01-01 00:13:12.537936963,E4_Acc,2024-06-25 12:46:10.480309963,-16.0,62.0,7.0
1904-01-01 00:13:12.569186962,E4_Acc,2024-06-25 12:46:10.511559962,-16.0,62.0,8.0
1904-01-01 00:13:12.600436963,E4_Acc,2024-06-25 12:46:10.542809963,-17.0,62.0,7.0
1904-01-01 00:13:12.631686963,E4_Acc,2024-06-25 12:46:10.574059963,-16.0,62.0,7.0
1904-01-01 00:13:12.662936963,E4_Acc,2024-06-25 12:46:10.605309963,-17.0,62.0,7.0
1904-01-01 00:13:12.694186963,E4_Acc,2024-06-25 12:46:10.636559963,-17.0,62.0,7.0
1904-01-01 00:13:12.725436963,E4_Acc,2024-06-25 12:46:10.667809963,-17.0,62.0,7.0
1904-01-01 00:13:12.756696977,E4_Acc,2024-06-25 12:46:10.699069977,-16.0,62.0,7.0
1904-01-01 00:13:12.787946977,E4_Acc,2024-06-25 12:46:10.730319977,-16.0,62.0,7.0
1904-01-01 00:13:12.819196977,E4_Acc,2024-06-25 12:46:10.761569977,-16.0,62.0,7.0
1904-01-01 00:13:12.850446977,E4_Acc,2024-06-25 12:46:10.792819977,-16.0,62.0,7.0
1904-01-01 00:13:12.881696977,E4_Acc,2024-06-25 12:46:10.824069977,-16.0,62.0,8.0
1904-01-01 00:13:12.912946977,E4_Acc,2024-06-25 12:46:10.855319977,-15.0,62.0,6.0
1904-01-01 00:13:12.944196977,E4_Acc,2024-06-25 12:46:10.886569977,-18.0,63.0,6.0
1904-01-01 00:13:12.975456990,E4_Acc,2024-06-25 12:46:10.917829990,-16.0,62.0,7.0
1904-01-01 00:13:13.006706990,E4_Acc,2024-06-25 12:46:10.949079990,-17.0,63.0,6.0
1904-01-01 00:13:13.037956990,E4_Acc,2024-06-25 12:46:10.980329990,-16.0,60.0,7.0
1904-01-01 00:13:13.069206990,E4_Acc,2024-06-25 12:46:11.011579990,-16.0,62.0,8.0
1904-01-01 00:13:13.100456990,E4_Acc,2024-06-25 12:46:11.042829990,-16.0,62.0,7.0
1904-01-01 00:13:13.131706990,E4_Acc,2024-06-25 12:46:11.074079990,-18.0,63.0,10.0
1904-01-01 00:13:13.162967004,E4_Acc,2024-06-25 12:46:11.105340004,-18.0,63.0,12.0
1904-01-01 00:13:13.194217004,E4_Acc,2024-06-25 12:46:11.136590004,-19.0,66.0,12.0
1904-01-01 00:13:13.225467004,E4_Acc,2024-06-25 12:46:11.167840004,-27.0,53.0,22.0
1904-01-01 00:13:13.256717004,E4_Acc,2024-06-25 12:46:11.199090004,-27.0,45.0,22.0
1904-01-01 00:13:13.287967004,E4_Acc,2024-06-25 12:46:11.230340004,-18.0,70.0,30.0
1904-01-01 00:13:13.319217004,E4_Acc,2024-06-25 12:46:11.261590004,-10.0,69.0,30.0
1904-01-01 00:13:13.350467004,E4_Acc,2024-06-25 12:46:11.292840004,-8.0,69.0,29.0
1904-01-01 00:13:13.381727018,E4_Acc,2024-06-25 12:46:11.324100018,-11.0,71.0,21.0
1904-01-01 00:13:13.412977018,E4_Acc,2024-06-25 12:46:11.355350018,-14.0,71.0,15.0
1904-01-01 00:13:13.444227018,E4_Acc,2024-06-25 12:46:11.386600018,-18.0,68.0,4.0
1904-01-01 00:13:13.475477018,E4_Acc,2024-06-25 12:46:11.417850018,-27.0,60.0,0.0
1904-01-01 00:13:13.506727018,E4_Acc,2024-06-25 12:46:11.449100018,-30.0,59.0,-1.0
1904-01-01 00:13:13.537977018,E4_Acc,2024-06-25 12:46:11.480350018,-38.0,59.0,-3.0
1904-01-01 00:13:13.569227018,E4_Acc,2024-06-25 12:46:11.511600018,-41.0,58.0,-4.0
1904-01-01 00:13:13.600487031,E4_Acc,2024-06-25 12:46:11.542860031,-49.0,57.0,-12.0
1904-01-01 00:13:13.631737031,E4_Acc,2024-06-25 12:46:11.574110031,-44.0,54.0,-7.0
1904-01-01 00:13:13.662987031,E4_Acc,2024-06-25 12:46:11.605360031,-45.0,51.0,-3.0
1904-01-01 00:13:13.694237031,E4_Acc,2024-06-25 12:46:11.636610031,-49.0,47.0,-2.0
1904-01-01 00:13:13.725487031,E4_Acc,2024-06-25 12:46:11.667860031,-48.0,46.0,0.0
1904-01-01 00:13:13.756737031,E4_Acc,2024-06-25 12:46:11.699110031,-42.0,38.0,4.0
1904-01-01 00:13:13.787987031,E4_Acc,2024-06-25 12:46:11.730360031,-42.0,33.0,4.0
1904-01-01 00:13:13.819247045,E4_Acc,2024-06-25 12:46:11.761620045,-42.0,33.0,4.0
1904-01-01 00:13:13.850497045,E4_Acc,2024-06-25 12:46:11.792870045,-40.0,30.0,2.0
1904-01-01 00:13:13.881747045,E4_Acc,2024-06-25 12:46:11.824120045,-41.0,30.0,3.0
1904-01-01 00:13:13.912997045,E4_Acc,2024-06-25 12:46:11.855370045,-46.0,33.0,8.0
1904-01-01 00:13:13.944247045,E4_Acc,2024-06-25 12:46:11.886620045,-44.0,31.0,10.0
1904-01-01 00:13:13.975497045,E4_Acc,2024-06-25 12:46:11.917870045,-42.0,30.0,10.0
1904-01-01 00:13:14.006747045,E4_Acc,2024-06-25 12:46:11.949120045,-37.0,29.0,12.0
1904-01-01 00:13:14.038007058,E4_Acc,2024-06-25 12:46:11.980380058,-35.0,31.0,15.0
1904-01-01 00:13:14.069257058,E4_Acc,2024-06-25 12:46:12.011630058,-41.0,37.0,22.0
1904-01-01 00:13:14.100507058,E4_Acc,2024-06-25 12:46:12.042880058,-40.0,48.0,51.0
1904-01-01 00:13:14.131757058,E4_Acc,2024-06-25 12:46:12.074130058,-19.0,52.0,80.0
1904-01-01 00:13:14.163007058,E4_Acc,2024-06-25 12:46:12.105380058,-62.0,42.0,20.0
1904-01-01 00:13:14.194257058,E4_Acc,2024-06-25 12:46:12.136630058,-66.0,12.0,-63.0
1904-01-01 00:13:14.225507058,E4_Acc,2024-06-25 12:46:12.167880058,11.0,6.0,24.0
1904-01-01 00:13:14.256767072,E4_Acc,2024-06-25 12:46:12.199140072,-100.0,36.0,14.0
1904-01-01 00:13:14.288017072,E4_Acc,2024-06-25 12:46:12.230390072,-111.0,31.0,-14.0
1904-01-01 00:13:14.319267072,E4_Acc,2024-06-25 12:46:12.261640072,-46.0,42.0,-4.0
1904-01-01 00:13:14.350517072,E4_Acc,2024-06-25 12:46:12.292890072,-83.0,26.0,-15.0
1904-01-01 00:13:14.381767072,E4_Acc,2024-06-25 12:46:12.324140072,-70.0,47.0,-19.0
1904-01-01 00:13:14.413017072,E4_Acc,2024-06-25 12:46:12.355390072,-41.0,32.0,5.0
1904-01-01 00:13:14.444267072,E4_Acc,2024-06-25 12:46:12.386640072,-41.0,38.0,1.0
1904-01-01 00:13:14.475527085,E4_Acc,2024-06-25 12:46:12.417900085,-56.0,34.0,-2.0
1904-01-01 00:13:14.506777085,E4_Acc,2024-06-25 12:46:12.449150085,-53.0,39.0,-6.0
1904-01-01 00:13:14.538027085,E4_Acc,2024-06-25 12:46:12.480400085,-48.0,42.0,1.0
1904-01-01 00:13:14.569277085,E4_Acc,2024-06-25 12:46:12.511650085,-54.0,45.0,9.0
1904-01-01 00:13:14.600527085,E4_Acc,2024-06-25 12:46:12.542900085,-42.0,41.0,8.0
1904-01-01 00:13:14.631777085,E4_Acc,2024-06-25 12:46:12.574150085,-43.0,41.0,0.0
1904-01-01 00:13:14.663027085,E4_Acc,2024-06-25 12:46:12.605400085,-51.0,42.0,0.0
1904-01-01 00:13:14.694287099,E4_Acc,2024-06-25 12:46:12.636660099,-49.0,43.0,2.0
1904-01-01 00:13:14.725537099,E4_Acc,2024-06-25 12:46:12.667910099,-48.0,43.0,1.0
1904-01-01 00:13:14.756787099,E4_Acc,2024-06-25 12:46:12.699160099,-46.0,42.0,0.0
1904-01-01 00:13:14.788037099,E4_Acc,2024-06-25 12:46:12.730410099,-52.0,42.0,-2.0
1904-01-01 00:13:14.819287099,E4_Acc,2024-06-25 12:46:12.761660099,-55.0,43.0,-4.0
1904-01-01 00:13:14.850537099,E4_Acc,2024-06-25 12:46:12.792910099,-52.0,43.0,-2.0
1904-01-01 00:13:14.881787099,E4_Acc,2024-06-25 12:46:12.824160099,-47.0,42.0,1.0
1904-01-01 00:13:14.913047113,E4_Acc,2024-06-25 12:46:12.855420113,-48.0,41.0,0.0
1904-01-01 00:13:14.944297113,E4_Acc,2024-06-25 12:46:12.886670113,-47.0,42.0,2.0
1904-01-01 00:13:14.975547113,E4_Acc,2024-06-25 12:46:12.917920113,-49.0,41.0,1.0
1904-01-01 00:13:15.006797113,E4_Acc,2024-06-25 12:46:12.949170113,-50.0,41.0,0.0
1904-01-01 00:13:15.038047113,E4_Acc,2024-06-25 12:46:12.980420113,-49.0,42.0,1.0
1904-01-01 00:13:15.069297113,E4_Acc,2024-06-25 12:46:13.011670113,-49.0,42.0,1.0
1904-01-01 00:13:15.100547113,E4_Acc,2024-06-25 12:46:13.042920113,-49.0,41.0,1.0
1904-01-01 00:13:15.131806888,E4_Acc,2024-06-25 12:46:13.074179888,-49.0,42.0,1.0
1904-01-01 00:13:15.163056888,E4_Acc,2024-06-25 12:46:13.105429888,-50.0,42.0,1.0
1904-01-01 00:13:15.194306888,E4_Acc,2024-06-25 12:46:13.136679888,-49.0,41.0,0.0
1904-01-01 00:13:15.225556888,E4_Acc,2024-06-25 12:46:13.167929888,-49.0,41.0,0.0
1904-01-01 00:13:15.256806888,E4_Acc,2024-06-25 12:46:13.199179888,-49.0,42.0,1.0
1904-01-01 00:13:15.288056888,E4_Acc,2024-06-25 12:46:13.230429888,-49.0,42.0,1.0
1904-01-01 00:13:15.319316901,E4_Acc,2024-06-25 12:46:13.261689901,-50.0,41.0,1.0
1904-01-01 00:13:15.350566901,E4_Acc,2024-06-25 12:46:13.292939901,-50.0,42.0,1.0
1904-01-01 00:13:15.381816901,E4_Acc,2024-06-25 12:46:13.324189901,-49.0,41.0,1.0
1904-01-01 00:13:15.413066901,E4_Acc,2024-06-25 12:46:13.355439901,-49.0,41.0,1.0
1904-01-01 00:13:15.444316901,E4_Acc,2024-06-25 12:46:13.386689901,-49.0,41.0,1.0
1904-01-01 00:13:15.475566901,E4_Acc,2024-06-25 12:46:13.417939901,-49.0,42.0,2.0
1904-01-01 00:13:15.506816901,E4_Acc,2024-06-25 12:46:13.449189901,-49.0,42.0,1.0
1904-01-01 00:13:15.538076915,E4_Acc,2024-06-25 12:46:13.480449915,-49.0,42.0,1.0
1904-01-01 00:13:15.569326915,E4_Acc,2024-06-25 12:46:13.511699915,-50.0,42.0,1.0
1904-01-01 00:13:15.600576915,E4_Acc,2024-06-25 12:46:13.542949915,-49.0,42.0,1.0
1904-01-01 00:13:15.631826915,E4_Acc,2024-06-25 12:46:13.574199915,-49.0,42.0,1.0
1904-01-01 00:13:15.663076915,E4_Acc,2024-06-25 12:46:13.605449915,-49.0,42.0,2.0
1904-01-01 00:13:15.694326915,E4_Acc,2024-06-25 12:46:13.636699915,-49.0,42.0,2.0
1904-01-01 00:13:15.725576915,E4_Acc,2024-06-25 12:46:13.667949915,-49.0,42.0,2.0
1904-01-01 00:13:15.756836929,E4_Acc,2024-06-25 12:46:13.699209929,-49.0,42.0,2.0
1904-01-01 00:13:15.788086929,E4_Acc,2024-06-25 12:46:13.730459929,-49.0,42.0,2.0
1904-01-01 00:13:15.819336929,E4_Acc,2024-06-25 12:46:13.761709929,-49.0,42.0,1.0
1904-01-01 00:13:15.850586929,E4_Acc,2024-06-25 12:46:13.792959929,-49.0,41.0,1.0
1904-01-01 00:13:15.881836929,E4_Acc,2024-06-25 12:46:13.824209929,-49.0,42.0,2.0
1904-01-01 00:13:15.913086929,E4_Acc,2024-06-25 12:46:13.855459929,-49.0,41.0,2.0
1904-01-01 00:13:15.944336929,E4_Acc,2024-06-25 12:46:13.886709929,-49.0,42.0,2.0
1904-01-01 00:13:15.975596942,E4_Acc,2024-06-25 12:46:13.917969942,-50.0,41.0,1.0
1904-01-01 00:13:16.006846942,E4_Acc,2024-06-25 12:46:13.949219942,-49.0,42.0,2.0
1904-01-01 00:13:16.038096942,E4_Acc,2024-06-25 12:46:13.980469942,-49.0,42.0,2.0
1904-01-01 00:13:16.069346942,E4_Acc,2024-06-25 12:46:14.011719942,-48.0,41.0,2.0
1904-01-01 00:13:16.100596942,E4_Acc,2024-06-25 12:46:14.042969942,-49.0,41.0,2.0
1904-01-01 00:13:16.131846942,E4_Acc,2024-06-25 12:46:14.074219942,-50.0,42.0,2.0
1904-01-01 00:13:16.163096942,E4_Acc,2024-06-25 12:46:14.105469942,-49.0,42.0,2.0
1904-01-01 00:13:16.194356956,E4_Acc,2024-06-25 12:46:14.136729956,-49.0,42.0,1.0
1904-01-01 00:13:16.225606956,E4_Acc,2024-06-25 12:46:14.167979956,-49.0,42.0,2.0
1904-01-01 00:13:16.256856956,E4_Acc,2024-06-25 12:46:14.199229956,-49.0,42.0,1.0
1904-01-01 00:13:16.288106956,E4_Acc,2024-06-25 12:46:14.230479956,-49.0,42.0,2.0
1904-01-01 00:13:16.319356956,E4_Acc,2024-06-25 12:46:14.261729956,-49.0,42.0,2.0
1904-01-01 00:13:16.350606956,E4_Acc,2024-06-25 12:46:14.292979956,-49.0,42.0,2.0
1904-01-01 00:13:16.381856956,E4_Acc,2024-06-25 12:46:14.324229956,-49.0,42.0,2.0
1904-01-01 00:13:16.413116969,E4_Acc,2024-06-25 12:46:14.355489969,-49.0,42.0,2.0
1904-01-01 00:13:16.444366969,E4_Acc,2024-06-25 12:46:14.386739969,-49.0,42.0,2.0
1904-01-01 00:13:16.475616969,E4_Acc,2024-06-25 12:46:14.417989969,-49.0,42.0,2.0
1904-01-01 00:13:16.506866969,E4_Acc,2024-06-25 12:46:14.449239969,-49.0,42.0,1.0
1904-01-01 00:13:16.538116969,E4_Acc,2024-06-25 12:46:14.480489969,-49.0,42.0,2.0
1904-01-01 00:13:16.569366968,E4_Acc,2024-06-25 12:46:14.511739968,-49.0,42.0,1.0
1904-01-01 00:13:16.600616969,E4_Acc,2024-06-25 12:46:14.542989969,-49.0,42.0,1.0
1904-01-01 00:13:16.631876983,E4_Acc,2024-06-25 12:46:14.574249983,-48.0,42.0,2.0
1904-01-01 00:13:16.663126983,E4_Acc,2024-06-25 12:46:14.605499983,-48.0,42.0,2.0
1904-01-01 00:13:16.694376983,E4_Acc,2024-06-25 12:46:14.636749983,-48.0,42.0,2.0
1904-01-01 00:13:16.725626983,E4_Acc,2024-06-25 12:46:14.667999983,-49.0,43.0,2.0
1904-01-01 00:13:16.756876983,E4_Acc,2024-06-25 12:46:14.699249983,-49.0,43.0,2.0
1904-01-01 00:13:16.788126983,E4_Acc,2024-06-25 12:46:14.730499983,-48.0,42.0,1.0
1904-01-01 00:13:16.819376983,E4_Acc,2024-06-25 12:46:14.761749983,-48.0,42.0,1.0
1904-01-01 00:13:16.850636996,E4_Acc,2024-06-25 12:46:14.793009996,-48.0,42.0,2.0
1904-01-01 00:13:16.881886996,E4_Acc,2024-06-25 12:46:14.824259996,-49.0,42.0,2.0
1904-01-01 00:13:16.913136996,E4_Acc,2024-06-25 12:46:14.855509996,-48.0,42.0,1.0
1904-01-01 00:13:16.944386996,E4_Acc,2024-06-25 12:46:14.886759996,-49.0,43.0,1.0
1904-01-01 00:13:16.975636996,E4_Acc,2024-06-25 12:46:14.918009996,-49.0,43.0,1.0
1904-01-01 00:13:17.006886996,E4_Acc,2024-06-25 12:46:14.949259996,-49.0,43.0,1.0
1904-01-01 00:13:17.038136996,E4_Acc,2024-06-25 12:46:14.980509996,-49.0,43.0,1.0
1904-01-01 00:13:17.069397010,E4_Acc,2024-06-25 12:46:15.011770010,-48.0,43.0,1.0
1904-01-01 00:13:17.100647010,E4_Acc,2024-06-25 12:46:15.043020010,-48.0,43.0,1.0
1904-01-01 00:13:17.131897010,E4_Acc,2024-06-25 12:46:15.074270010,-48.0,42.0,1.0
1904-01-01 00:13:17.163147010,E4_Acc,2024-06-25 12:46:15.105520010,-48.0,42.0,1.0
1904-01-01 00:13:17.194397010,E4_Acc,2024-06-25 12:46:15.136770010,-48.0,43.0,1.0
1904-01-01 00:13:17.225647010,E4_Acc,2024-06-25 12:46:15.168020010,-48.0,43.0,1.0
1904-01-01 00:13:17.256897010,E4_Acc,2024-06-25 12:46:15.199270010,-49.0,43.0,1.0
1904-01-01 00:13:17.288157024,E4_Acc,2024-06-25 12:46:15.230530024,-48.0,43.0,1.0
1904-01-01 00:13:17.319407024,E4_Acc,2024-06-25 12:46:15.261780024,-49.0,43.0,1.0
1904-01-01 00:13:17.350657024,E4_Acc,2024-06-25 12:46:15.293030024,-48.0,43.0,1.0
1904-01-01 00:13:17.381907024,E4_Acc,2024-06-25 12:46:15.324280024,-48.0,43.0,1.0
1904-01-01 00:13:17.413157024,E4_Acc,2024-06-25 12:46:15.355530024,-48.0,43.0,0.0
1904-01-01 00:13:17.444407024,E4_Acc,2024-06-25 12:46:15.386780024,-48.0,43.0,0.0
1904-01-01 00:13:17.475657024,E4_Acc,2024-06-25 12:46:15.418030024,-48.0,43.0,1.0
1904-01-01 00:13:17.506917037,E4_Acc,2024-06-25 12:46:15.449290037,-48.0,43.0,1.0
1904-01-01 00:13:17.538167037,E4_Acc,2024-06-25 12:46:15.480540037,-48.0,43.0,1.0
1904-01-01 00:13:17.569417037,E4_Acc,2024-06-25 12:46:15.511790037,-49.0,43.0,1.0
1904-01-01 00:13:17.600667037,E4_Acc,2024-06-25 12:46:15.543040037,-48.0,42.0,1.0
1904-01-01 00:13:17.631917037,E4_Acc,2024-06-25 12:46:15.574290037,-48.0,43.0,1.0
1904-01-01 00:13:17.663167037,E4_Acc,2024-06-25 12:46:15.605540037,-48.0,43.0,1.0
1904-01-01 00:13:17.694427051,E4_Acc,2024-06-25 12:46:15.636800051,-48.0,43.0,1.0
1904-01-01 00:13:17.725677051,E4_Acc,2024-06-25 12:46:15.668050051,-50.0,45.0,2.0
1904-01-01 00:13:17.756927051,E4_Acc,2024-06-25 12:46:15.699300051,-50.0,43.0,1.0
1904-01-01 00:13:17.788177051,E4_Acc,2024-06-25 12:46:15.730550051,-47.0,43.0,0.0
1904-01-01 00:13:17.819427051,E4_Acc,2024-06-25 12:46:15.761800051,-49.0,43.0,0.0
1904-01-01 00:13:17.850677051,E4_Acc,2024-06-25 12:46:15.793050051,-47.0,43.0,0.0
1904-01-01 00:13:17.881927051,E4_Acc,2024-06-25 12:46:15.824300051,-47.0,43.0,1.0
1904-01-01 00:13:17.913187064,E4_Acc,2024-06-25 12:46:15.855560064,-48.0,43.0,0.0
1904-01-01 00:13:17.944437064,E4_Acc,2024-06-25 12:46:15.886810064,-48.0,43.0,0.0
1904-01-01 00:13:17.975687064,E4_Acc,2024-06-25 12:46:15.918060064,-48.0,43.0,0.0
1904-01-01 00:13:18.006937064,E4_Acc,2024-06-25 12:46:15.949310064,-49.0,43.0,0.0
1904-01-01 00:13:18.038187064,E4_Acc,2024-06-25 12:46:15.980560064,-49.0,43.0,0.0
1904-01-01 00:13:18.069437064,E4_Acc,2024-06-25 12:46:16.011810064,-48.0,43.0,0.0
1904-01-01 00:13:18.100687064,E4_Acc,2024-06-25 12:46:16.043060064,-48.0,43.0,1.0
1904-01-01 00:13:18.131947078,E4_Acc,2024-06-25 12:46:16.074320078,-48.0,43.0,0.0
1904-01-01 00:13:18.163197078,E4_Acc,2024-06-25 12:46:16.105570078,-48.0,43.0,0.0
1904-01-01 00:13:18.194447078,E4_Acc,2024-06-25 12:46:16.136820078,-48.0,43.0,0.0
1904-01-01 00:13:18.225697078,E4_Acc,2024-06-25 12:46:16.168070078,-48.0,43.0,0.0
1904-01-01 00:13:18.256947078,E4_Acc,2024-06-25 12:46:16.199320078,-48.0,42.0,0.0
1904-01-01 00:13:18.288197078,E4_Acc,2024-06-25 12:46:16.230570078,-47.0,42.0,0.0
1904-01-01 00:13:18.319447078,E4_Acc,2024-06-25 12:46:16.261820078,-48.0,43.0,0.0
1904-01-01 00:13:18.350707091,E4_Acc,2024-06-25 12:46:16.293080091,-49.0,43.0,0.0
1904-01-01 00:13:18.381957091,E4_Acc,2024-06-25 12:46:16.324330091,-49.0,43.0,0.0
1904-01-01 00:13:18.413207091,E4_Acc,2024-06-25 12:46:16.355580091,-48.0,43.0,1.0
1904-01-01 00:13:18.444457091,E4_Acc,2024-06-25 12:46:16.386830091,-48.0,42.0,0.0
1904-01-01 00:13:18.475707091,E4_Acc,2024-06-25 12:46:16.418080091,-48.0,43.0,0.0
1904-01-01 00:13:18.506957091,E4_Acc,2024-06-25 12:46:16.449330091,-48.0,43.0,1.0
1904-01-01 00:13:18.538207091,E4_Acc,2024-06-25 12:46:16.480580091,-48.0,42.0,1.0
1904-01-01 00:13:18.569467105,E4_Acc,2024-06-25 12:46:16.511840105,-49.0,43.0,1.0
1904-01-01 00:13:18.600717105,E4_Acc,2024-06-25 12:46:16.543090105,-49.0,42.0,1.0
1904-01-01 00:13:18.631967105,E4_Acc,2024-06-25 12:46:16.574340105,-48.0,42.0,1.0
1904-01-01 00:13:18.663217105,E4_Acc,2024-06-25 12:46:16.605590105,-48.0,43.0,1.0
1904-01-01 00:13:18.694467105,E4_Acc,2024-06-25 12:46:16.636840105,-48.0,43.0,1.0
1904-01-01 00:13:18.725717105,E4_Acc,2024-06-25 12:46:16.668090105,-48.0,43.0,1.0
1904-01-01 00:13:18.756967105,E4_Acc,2024-06-25 12:46:16.699340105,-48.0,43.0,1.0
1904-01-01 00:13:18.788227119,E4_Acc,2024-06-25 12:46:16.730600119,-48.0,43.0,1.0
1904-01-01 00:13:18.819477119,E4_Acc,2024-06-25 12:46:16.761850119,-48.0,43.0,1.0
1904-01-01 00:13:18.850727119,E4_Acc,2024-06-25 12:46:16.793100119,-48.0,43.0,1.0
1904-01-01 00:13:18.881977119,E4_Acc,2024-06-25 12:46:16.824350119,-49.0,42.0,1.0
1904-01-01 00:13:18.913227119,E4_Acc,2024-06-25 12:46:16.855600119,-48.0,42.0,1.0
1904-01-01 00:13:18.944477119,E4_Acc,2024-06-25 12:46:16.886850119,-49.0,43.0,1.0
1904-01-01 00:13:18.975727119,E4_Acc,2024-06-25 12:46:16.918100119,-48.0,43.0,1.0
1904-01-01 00:13:19.006986894,E4_Acc,2024-06-25 12:46:16.949359894,-48.0,43.0,1.0
1904-01-01 00:13:19.038236894,E4_Acc,2024-06-25 12:46:16.980609894,-48.0,43.0,1.0
1904-01-01 00:13:19.069486894,E4_Acc,2024-06-25 12:46:17.011859894,-48.0,43.0,1.0
1904-01-01 00:13:19.100736894,E4_Acc,2024-06-25 12:46:17.043109894,-48.0,42.0,1.0
1904-01-01 00:13:19.131986894,E4_Acc,2024-06-25 12:46:17.074359894,-48.0,43.0,1.0
1904-01-01 00:13:19.163236894,E4_Acc,2024-06-25 12:46:17.105609894,-49.0,43.0,0.0
1904-01-01 00:13:19.194486894,E4_Acc,2024-06-25 12:46:17.136859894,-48.0,43.0,0.0
1904-01-01 00:13:19.225746907,E4_Acc,2024-06-25 12:46:17.168119907,-48.0,43.0,1.0
1904-01-01 00:13:19.256996907,E4_Acc,2024-06-25 12:46:17.199369907,-48.0,43.0,1.0
1904-01-01 00:13:19.288246907,E4_Acc,2024-06-25 12:46:17.230619907,-49.0,43.0,1.0
1904-01-01 00:13:19.319496907,E4_Acc,2024-06-25 12:46:17.261869907,-49.0,43.0,0.0
1904-01-01 00:13:19.350746907,E4_Acc,2024-06-25 12:46:17.293119907,-48.0,43.0,1.0
1904-01-01 00:13:19.381996907,E4_Acc,2024-06-25 12:46:17.324369907,-48.0,43.0,1.0
1904-01-01 00:13:19.413246907,E4_Acc,2024-06-25 12:46:17.355619907,-48.0,43.0,1.0
1904-01-01 00:13:19.444506921,E4_Acc,2024-06-25 12:46:17.386879921,-48.0,43.0,1.0
1904-01-01 00:13:19.475756921,E4_Acc,2024-06-25 12:46:17.418129921,-48.0,43.0,1.0
1904-01-01 00:13:19.507006921,E4_Acc,2024-06-25 12:46:17.449379921,-48.0,43.0,1.0
1904-01-01 00:13:19.538256921,E4_Acc,2024-06-25 12:46:17.480629921,-48.0,43.0,1.0
1904-01-01 00:13:19.569506921,E4_Acc,2024-06-25 12:46:17.511879921,-48.0,43.0,1.0
1904-01-01 00:13:19.600756921,E4_Acc,2024-06-25 12:46:17.543129921,-48.0,42.0,1.0
1904-01-01 00:13:19.632006921,E4_Acc,2024-06-25 12:46:17.574379921,-48.0,43.0,1.0
1904-01-01 00:13:19.663266935,E4_Acc,2024-06-25 12:46:17.605639935,-48.0,43.0,1.0
1904-01-01 00:13:19.694516935,E4_Acc,2024-06-25 12:46:17.636889935,-48.0,43.0,1.0
1904-01-01 00:13:19.725766935,E4_Acc,2024-06-25 12:46:17.668139935,-48.0,42.0,1.0
1904-01-01 00:13:19.757016935,E4_Acc,2024-06-25 12:46:17.699389935,-48.0,43.0,1.0
1904-01-01 00:13:19.788266935,E4_Acc,2024-06-25 12:46:17.730639935,-48.0,42.0,1.0
1904-01-01 00:13:19.819516935,E4_Acc,2024-06-25 12:46:17.761889935,-48.0,42.0,1.0
1904-01-01 00:13:19.850766935,E4_Acc,2024-06-25 12:46:17.793139935,-48.0,42.0,1.0
1904-01-01 00:13:19.882026948,E4_Acc,2024-06-25 12:46:17.824399948,-48.0,43.0,1.0
1904-01-01 00:13:19.913276948,E4_Acc,2024-06-25 12:46:17.855649948,-48.0,42.0,1.0
1904-01-01 00:13:19.944526948,E4_Acc,2024-06-25 12:46:17.886899948,-48.0,42.0,1.0
1904-01-01 00:13:19.975776948,E4_Acc,2024-06-25 12:46:17.918149948,-49.0,42.0,1.0
1904-01-01 00:13:20.007026948,E4_Acc,2024-06-25 12:46:17.949399948,-49.0,43.0,1.0
1904-01-01 00:13:20.038276948,E4_Acc,2024-06-25 12:46:17.980649948,-48.0,43.0,1.0
1904-01-01 00:13:20.069526948,E4_Acc,2024-06-25 12:46:18.011899948,-48.0,43.0,1.0
1904-01-01 00:13:20.100786962,E4_Acc,2024-06-25 12:46:18.043159962,-48.0,43.0,1.0
1904-01-01 00:13:20.132036962,E4_Acc,2024-06-25 12:46:18.074409962,-48.0,42.0,1.0
1904-01-01 00:13:20.163286962,E4_Acc,2024-06-25 12:46:18.105659962,-48.0,43.0,1.0
1904-01-01 00:13:20.194536962,E4_Acc,2024-06-25 12:46:18.136909962,-48.0,43.0,2.0
1904-01-01 00:13:20.225786962,E4_Acc,2024-06-25 12:46:18.168159962,-48.0,43.0,1.0
1904-01-01 00:13:20.257036962,E4_Acc,2024-06-25 12:46:18.199409962,-48.0,43.0,1.0
1904-01-01 00:13:20.288286962,E4_Acc,2024-06-25 12:46:18.230659962,-48.0,43.0,2.0
1904-01-01 00:13:20.319546975,E4_Acc,2024-06-25 12:46:18.261919975,-48.0,42.0,1.0
1904-01-01 00:13:20.350796975,E4_Acc,2024-06-25 12:46:18.293169975,-48.0,42.0,2.0
1904-01-01 00:13:20.382046975,E4_Acc,2024-06-25 12:46:18.324419975,-48.0,43.0,2.0
1904-01-01 00:13:20.413296975,E4_Acc,2024-06-25 12:46:18.355669975,-48.0,43.0,1.0
1904-01-01 00:13:20.444546975,E4_Acc,2024-06-25 12:46:18.386919975,-48.0,43.0,2.0
1904-01-01 00:13:20.475796975,E4_Acc,2024-06-25 12:46:18.418169975,-48.0,43.0,2.0
1904-01-01 00:13:20.507056989,E4_Acc,2024-06-25 12:46:18.449429989,-48.0,43.0,2.0
1904-01-01 00:13:20.538306989,E4_Acc,2024-06-25 12:46:18.480679989,-48.0,43.0,1.0
1904-01-01 00:13:20.569556989,E4_Acc,2024-06-25 12:46:18.511929989,-48.0,42.0,1.0
1904-01-01 00:13:20.600806989,E4_Acc,2024-06-25 12:46:18.543179989,-48.0,43.0,2.0
1904-01-01 00:13:20.632056989,E4_Acc,2024-06-25 12:46:18.574429989,-48.0,43.0,1.0
1904-01-01 00:13:20.663306989,E4_Acc,2024-06-25 12:46:18.605679989,-48.0,43.0,1.0
1904-01-01 00:13:20.694556989,E4_Acc,2024-06-25 12:46:18.636929989,-48.0,43.0,2.0
1904-01-01 00:13:20.725817002,E4_Acc,2024-06-25 12:46:18.668190002,-48.0,43.0,2.0
1904-01-01 00:13:20.757067002,E4_Acc,2024-06-25 12:46:18.699440002,-48.0,43.0,2.0
1904-01-01 00:13:20.788317002,E4_Acc,2024-06-25 12:46:18.730690002,-48.0,43.0,1.0
1904-01-01 00:13:20.819567002,E4_Acc,2024-06-25 12:46:18.761940002,-48.0,42.0,1.0
1904-01-01 00:13:20.850817002,E4_Acc,2024-06-25 12:46:18.793190002,-48.0,43.0,2.0
1904-01-01 00:13:20.882067002,E4_Acc,2024-06-25 12:46:18.824440002,-48.0,43.0,2.0
1904-01-01 00:13:20.913317002,E4_Acc,2024-06-25 12:46:18.855690002,-48.0,43.0,1.0
1904-01-01 00:13:20.944577016,E4_Acc,2024-06-25 12:46:18.886950016,-48.0,43.0,1.0
1904-01-01 00:13:20.975827016,E4_Acc,2024-06-25 12:46:18.918200016,-48.0,43.0,2.0
1904-01-01 00:13:21.007077016,E4_Acc,2024-06-25 12:46:18.949450016,-48.0,43.0,1.0
1904-01-01 00:13:21.038327016,E4_Acc,2024-06-25 12:46:18.980700016,-48.0,43.0,2.0
1904-01-01 00:13:21.069577016,E4_Acc,2024-06-25 12:46:19.011950016,-48.0,43.0,1.0
1904-01-01 00:13:21.100827016,E4_Acc,2024-06-25 12:46:19.043200016,-48.0,43.0,1.0
1904-01-01 00:13:21.132077016,E4_Acc,2024-06-25 12:46:19.074450016,-48.0,43.0,1.0
1904-01-01 00:13:21.163337030,E4_Acc,2024-06-25 12:46:19.105710030,-48.0,43.0,1.0
1904-01-01 00:13:21.194587030,E4_Acc,2024-06-25 12:46:19.136960030,-48.0,43.0,1.0
1904-01-01 00:13:21.225837030,E4_Acc,2024-06-25 12:46:19.168210030,-48.0,43.0,2.0
1904-01-01 00:13:21.257087030,E4_Acc,2024-06-25 12:46:19.199460030,-48.0,43.0,1.0
1904-01-01 00:13:21.288337030,E4_Acc,2024-06-25 12:46:19.230710030,-48.0,43.0,1.0
1904-01-01 00:13:21.319587030,E4_Acc,2024-06-25 12:46:19.261960030,-48.0,43.0,1.0
1904-01-01 00:13:21.350837030,E4_Acc,2024-06-25 12:46:19.293210030,-48.0,43.0,1.0
1904-01-01 00:13:21.382097043,E4_Acc,2024-06-25 12:46:19.324470043,-48.0,43.0,1.0
1904-01-01 00:13:21.413347043,E4_Acc,2024-06-25 12:46:19.355720043,-48.0,42.0,1.0
1904-01-01 00:13:21.444597043,E4_Acc,2024-06-25 12:46:19.386970043,-48.0,42.0,1.0
1904-01-01 00:13:21.475847043,E4_Acc,2024-06-25 12:46:19.418220043,-48.0,42.0,2.0
1904-01-01 00:13:21.507097043,E4_Acc,2024-06-25 12:46:19.449470043,-49.0,43.0,1.0
1904-01-01 00:13:21.538347043,E4_Acc,2024-06-25 12:46:19.480720043,-48.0,43.0,1.0
1904-01-01 00:13:21.569597043,E4_Acc,2024-06-25 12:46:19.511970043,-49.0,43.0,1.0
1904-01-01 00:13:21.600857057,E4_Acc,2024-06-25 12:46:19.543230057,-49.0,43.0,1.0
1904-01-01 00:13:21.632107057,E4_Acc,2024-06-25 12:46:19.574480057,-48.0,42.0,1.0
1904-01-01 00:13:21.663357057,E4_Acc,2024-06-25 12:46:19.605730057,-48.0,42.0,1.0
1904-01-01 00:13:21.694607057,E4_Acc,2024-06-25 12:46:19.636980057,-48.0,42.0,1.0
1904-01-01 00:13:21.725857057,E4_Acc,2024-06-25 12:46:19.668230057,-49.0,43.0,2.0
1904-01-01 00:13:21.757107057,E4_Acc,2024-06-25 12:46:19.699480057,-49.0,43.0,1.0
1904-01-01 00:13:21.788357057,E4_Acc,2024-06-25 12:46:19.730730057,-48.0,42.0,1.0
1904-01-01 00:13:21.819617070,E4_Acc,2024-06-25 12:46:19.761990070,-48.0,42.0,2.0
1904-01-01 00:13:21.850867070,E4_Acc,2024-06-25 12:46:19.793240070,-49.0,43.0,1.0
1904-01-01 00:13:21.882117070,E4_Acc,2024-06-25 12:46:19.824490070,-48.0,42.0,1.0
1904-01-01 00:13:21.913367070,E4_Acc,2024-06-25 12:46:19.855740070,-49.0,42.0,1.0
1904-01-01 00:13:21.944617070,E4_Acc,2024-06-25 12:46:19.886990070,-49.0,42.0,1.0
1904-01-01 00:13:21.975867070,E4_Acc,2024-06-25 12:46:19.918240070,-49.0,43.0,1.0
1904-01-01 00:13:22.007117070,E4_Acc,2024-06-25 12:46:19.949490070,-48.0,43.0,1.0
1904-01-01 00:13:22.038377084,E4_Acc,2024-06-25 12:46:19.980750084,-48.0,42.0,1.0
1904-01-01 00:13:22.069627084,E4_Acc,2024-06-25 12:46:20.012000084,-48.0,43.0,1.0
1904-01-01 00:13:22.100877084,E4_Acc,2024-06-25 12:46:20.043250084,-48.0,42.0,1.0
1904-01-01 00:13:22.132127084,E4_Acc,2024-06-25 12:46:20.074500084,-49.0,43.0,1.0
1904-01-01 00:13:22.163377084,E4_Acc,2024-06-25 12:46:20.105750084,-48.0,43.0,1.0
1904-01-01 00:13:22.194627084,E4_Acc,2024-06-25 12:46:20.137000084,-48.0,43.0,1.0
1904-01-01 00:13:22.225877084,E4_Acc,2024-06-25 12:46:20.168250084,-49.0,42.0,1.0
1904-01-01 00:13:22.257137098,E4_Acc,2024-06-25 12:46:20.199510098,-49.0,43.0,1.0
1904-01-01 00:13:22.288387098,E4_Acc,2024-06-25 12:46:20.230760098,-48.0,42.0,1.0
1904-01-01 00:13:22.319637098,E4_Acc,2024-06-25 12:46:20.262010098,-48.0,42.0,1.0
1904-01-01 00:13:22.350887098,E4_Acc,2024-06-25 12:46:20.293260098,-49.0,43.0,1.0
1904-01-01 00:13:22.382137098,E4_Acc,2024-06-25 12:46:20.324510098,-49.0,43.0,1.0
1904-01-01 00:13:22.413387098,E4_Acc,2024-06-25 12:46:20.355760098,-48.0,43.0,1.0
1904-01-01 00:13:22.444637098,E4_Acc,2024-06-25 12:46:20.387010098,-48.0,42.0,1.0
1904-01-01 00:13:22.475897111,E4_Acc,2024-06-25 12:46:20.418270111,-49.0,42.0,1.0
1904-01-01 00:13:22.507147111,E4_Acc,2024-06-25 12:46:20.449520111,-49.0,42.0,1.0
1904-01-01 00:13:22.538397111,E4_Acc,2024-06-25 12:46:20.480770111,-48.0,42.0,1.0
1904-01-01 00:13:22.569647111,E4_Acc,2024-06-25 12:46:20.512020111,-48.0,42.0,1.0
1904-01-01 00:13:22.600897111,E4_Acc,2024-06-25 12:46:20.543270111,-49.0,42.0,1.0
1904-01-01 00:13:22.632147111,E4_Acc,2024-06-25 12:46:20.574520111,-49.0,42.0,1.0
1904-01-01 00:13:22.663406886,E4_Acc,2024-06-25 12:46:20.605779886,-48.0,42.0,1.0
1904-01-01 00:13:22.694656886,E4_Acc,2024-06-25 12:46:20.637029886,-49.0,43.0,2.0
1904-01-01 00:13:22.725906886,E4_Acc,2024-06-25 12:46:20.668279886,-48.0,43.0,1.0
1904-01-01 00:13:22.757156886,E4_Acc,2024-06-25 12:46:20.699529886,-48.0,42.0,1.0
1904-01-01 00:13:22.788406886,E4_Acc,2024-06-25 12:46:20.730779886,-48.0,42.0,1.0
1904-01-01 00:13:22.819656886,E4_Acc,2024-06-25 12:46:20.762029886,-49.0,42.0,1.0
1904-01-01 00:13:22.850906886,E4_Acc,2024-06-25 12:46:20.793279886,-49.0,43.0,1.0
1904-01-01 00:13:22.882166900,E4_Acc,2024-06-25 12:46:20.824539900,-48.0,42.0,1.0
1904-01-01 00:13:22.913416900,E4_Acc,2024-06-25 12:46:20.855789900,-48.0,42.0,1.0
1904-01-01 00:13:22.944666900,E4_Acc,2024-06-25 12:46:20.887039900,-48.0,42.0,1.0
1904-01-01 00:13:22.975916900,E4_Acc,2024-06-25 12:46:20.918289900,-49.0,43.0,2.0
1904-01-01 00:13:23.007166900,E4_Acc,2024-06-25 12:46:20.949539900,-49.0,43.0,1.0
1904-01-01 00:13:23.038416900,E4_Acc,2024-06-25 12:46:20.980789900,-48.0,42.0,2.0
1904-01-01 00:13:23.069666900,E4_Acc,2024-06-25 12:46:21.012039900,-49.0,42.0,1.0
1904-01-01 00:13:23.100926913,E4_Acc,2024-06-25 12:46:21.043299913,-49.0,42.0,1.0
1904-01-01 00:13:23.132176913,E4_Acc,2024-06-25 12:46:21.074549913,-49.0,42.0,1.0
1904-01-01 00:13:23.163426913,E4_Acc,2024-06-25 12:46:21.105799913,-49.0,42.0,1.0
1904-01-01 00:13:23.194676913,E4_Acc,2024-06-25 12:46:21.137049913,-48.0,42.0,1.0
1904-01-01 00:13:23.225926913,E4_Acc,2024-06-25 12:46:21.168299913,-48.0,42.0,2.0
1904-01-01 00:13:23.257176913,E4_Acc,2024-06-25 12:46:21.199549913,-49.0,42.0,2.0
1904-01-01 00:13:23.288426913,E4_Acc,2024-06-25 12:46:21.230799913,-49.0,42.0,1.0
1904-01-01 00:13:23.319686927,E4_Acc,2024-06-25 12:46:21.262059927,-48.0,42.0,2.0
1904-01-01 00:13:23.350936927,E4_Acc,2024-06-25 12:46:21.293309927,-49.0,42.0,1.0
1904-01-01 00:13:23.382186927,E4_Acc,2024-06-25 12:46:21.324559927,-49.0,42.0,1.0
1904-01-01 00:13:23.413436927,E4_Acc,2024-06-25 12:46:21.355809927,-49.0,43.0,2.0
1904-01-01 00:13:23.444686927,E4_Acc,2024-06-25 12:46:21.387059927,-48.0,42.0,1.0
1904-01-01 00:13:23.475936927,E4_Acc,2024-06-25 12:46:21.418309927,-48.0,42.0,1.0
1904-01-01 00:13:23.507186927,E4_Acc,2024-06-25 12:46:21.449559927,-48.0,42.0,2.0
1904-01-01 00:13:23.538446941,E4_Acc,2024-06-25 12:46:21.480819941,-48.0,43.0,2.0
1904-01-01 00:13:23.569696941,E4_Acc,2024-06-25 12:46:21.512069941,-48.0,43.0,2.0
1904-01-01 00:13:23.600946941,E4_Acc,2024-06-25 12:46:21.543319941,-49.0,42.0,2.0
1904-01-01 00:13:23.632196941,E4_Acc,2024-06-25 12:46:21.574569941,-49.0,42.0,2.0
1904-01-01 00:13:23.663446941,E4_Acc,2024-06-25 12:46:21.605819941,-49.0,42.0,2.0
1904-01-01 00:13:23.694696941,E4_Acc,2024-06-25 12:46:21.637069941,-48.0,42.0,2.0
1904-01-01 00:13:23.725946941,E4_Acc,2024-06-25 12:46:21.668319941,-48.0,42.0,2.0
1904-01-01 00:13:23.757206954,E4_Acc,2024-06-25 12:46:21.699579954,-49.0,42.0,1.0
1904-01-01 00:13:23.788456954,E4_Acc,2024-06-25 12:46:21.730829954,-49.0,42.0,2.0
1904-01-01 00:13:23.819706954,E4_Acc,2024-06-25 12:46:21.762079954,-49.0,42.0,2.0
1904-01-01 00:13:23.850956954,E4_Acc,2024-06-25 12:46:21.793329954,-49.0,42.0,2.0
1904-01-01 00:13:23.882206954,E4_Acc,2024-06-25 12:46:21.824579954,-49.0,42.0,2.0
1904-01-01 00:13:23.913456954,E4_Acc,2024-06-25 12:46:21.855829954,-49.0,42.0,2.0
1904-01-01 00:13:23.944706954,E4_Acc,2024-06-25 12:46:21.887079954,-49.0,42.0,1.0
1904-01-01 00:13:23.975966968,E4_Acc,2024-06-25 12:46:21.918339968,-49.0,42.0,2.0
1904-01-01 00:13:24.007216968,E4_Acc,2024-06-25 12:46:21.949589968,-48.0,42.0,2.0
1904-01-01 00:13:24.038466968,E4_Acc,2024-06-25 12:46:21.980839968,-48.0,42.0,2.0
1904-01-01 00:13:24.069716968,E4_Acc,2024-06-25 12:46:22.012089968,-49.0,42.0,2.0
1904-01-01 00:13:24.100966968,E4_Acc,2024-06-25 12:46:22.043339968,-48.0,42.0,2.0
1904-01-01 00:13:24.132216968,E4_Acc,2024-06-25 12:46:22.074589968,-48.0,42.0,2.0
1904-01-01 00:13:24.163466968,E4_Acc,2024-06-25 12:46:22.105839968,-49.0,43.0,2.0
1904-01-01 00:13:24.194726981,E4_Acc,2024-06-25 12:46:22.137099981,-49.0,42.0,2.0
1904-01-01 00:13:24.225976981,E4_Acc,2024-06-25 12:46:22.168349981,-48.0,42.0,2.0
1904-01-01 00:13:24.257226981,E4_Acc,2024-06-25 12:46:22.199599981,-49.0,42.0,2.0
1904-01-01 00:13:24.288476981,E4_Acc,2024-06-25 12:46:22.230849981,-49.0,42.0,2.0
1904-01-01 00:13:24.319726980,E4_Acc,2024-06-25 12:46:22.262099980,-48.0,42.0,2.0
1904-01-01 00:13:24.350976981,E4_Acc,2024-06-25 12:46:22.293349981,-49.0,42.0,2.0
1904-01-01 00:13:24.382226981,E4_Acc,2024-06-25 12:46:22.324599981,-49.0,42.0,2.0
1904-01-01 00:13:24.413486995,E4_Acc,2024-06-25 12:46:22.355859995,-49.0,42.0,2.0
1904-01-01 00:13:24.444736995,E4_Acc,2024-06-25 12:46:22.387109995,-49.0,42.0,2.0
1904-01-01 00:13:24.475986995,E4_Acc,2024-06-25 12:46:22.418359995,-48.0,42.0,2.0
1904-01-01 00:13:24.507236995,E4_Acc,2024-06-25 12:46:22.449609995,-48.0,42.0,2.0
1904-01-01 00:13:24.538486995,E4_Acc,2024-06-25 12:46:22.480859995,-49.0,42.0,2.0
1904-01-01 00:13:24.569736995,E4_Acc,2024-06-25 12:46:22.512109995,-49.0,42.0,2.0
1904-01-01 00:13:24.600986995,E4_Acc,2024-06-25 12:46:22.543359995,-48.0,42.0,2.0
1904-01-01 00:13:24.632247008,E4_Acc,2024-06-25 12:46:22.574620008,-48.0,42.0,2.0
1904-01-01 00:13:24.663497008,E4_Acc,2024-06-25 12:46:22.605870008,-49.0,42.0,2.0
1904-01-01 00:13:24.694747008,E4_Acc,2024-06-25 12:46:22.637120008,-49.0,42.0,2.0
1904-01-01 00:13:24.725997008,E4_Acc,2024-06-25 12:46:22.668370008,-49.0,42.0,2.0
1904-01-01 00:13:24.757247008,E4_Acc,2024-06-25 12:46:22.699620008,-49.0,42.0,2.0
1904-01-01 00:13:24.788497008,E4_Acc,2024-06-25 12:46:22.730870008,-49.0,42.0,2.0
1904-01-01 00:13:24.819747008,E4_Acc,2024-06-25 12:46:22.762120008,-49.0,42.0,2.0
1904-01-01 00:13:24.851007022,E4_Acc,2024-06-25 12:46:22.793380022,-49.0,42.0,2.0
1904-01-01 00:13:24.882257022,E4_Acc,2024-06-25 12:46:22.824630022,-48.0,42.0,2.0
1904-01-01 00:13:24.913507022,E4_Acc,2024-06-25 12:46:22.855880022,-48.0,42.0,2.0
1904-01-01 00:13:24.944757022,E4_Acc,2024-06-25 12:46:22.887130022,-49.0,42.0,2.0
1904-01-01 00:13:24.976007022,E4_Acc,2024-06-25 12:46:22.918380022,-49.0,42.0,2.0
1904-01-01 00:13:25.007257022,E4_Acc,2024-06-25 12:46:22.949630022,-49.0,42.0,2.0
1904-01-01 00:13:25.038517036,E4_Acc,2024-06-25 12:46:22.980890036,-49.0,42.0,2.0
1904-01-01 00:13:25.069767036,E4_Acc,2024-06-25 12:46:23.012140036,-49.0,42.0,2.0
1904-01-01 00:13:25.101017036,E4_Acc,2024-06-25 12:46:23.043390036,-49.0,42.0,2.0
1904-01-01 00:13:25.132267036,E4_Acc,2024-06-25 12:46:23.074640036,-48.0,42.0,2.0
1904-01-01 00:13:25.163517036,E4_Acc,2024-06-25 12:46:23.105890036,-49.0,42.0,2.0
1904-01-01 00:13:25.194767036,E4_Acc,2024-06-25 12:46:23.137140036,-49.0,42.0,2.0
1904-01-01 00:13:25.226017036,E4_Acc,2024-06-25 12:46:23.168390036,-49.0,42.0,2.0
1904-01-01 00:13:25.257277049,E4_Acc,2024-06-25 12:46:23.199650049,-49.0,42.0,2.0
1904-01-01 00:13:25.288527049,E4_Acc,2024-06-25 12:46:23.230900049,-49.0,42.0,2.0
1904-01-01 00:13:25.319777049,E4_Acc,2024-06-25 12:46:23.262150049,-49.0,42.0,2.0
1904-01-01 00:13:25.351027049,E4_Acc,2024-06-25 12:46:23.293400049,-49.0,42.0,2.0
1904-01-01 00:13:25.382277049,E4_Acc,2024-06-25 12:46:23.324650049,-49.0,42.0,2.0
1904-01-01 00:13:25.413527049,E4_Acc,2024-06-25 12:46:23.355900049,-49.0,41.0,2.0
1904-01-01 00:13:25.444777049,E4_Acc,2024-06-25 12:46:23.387150049,-49.0,42.0,2.0
1904-01-01 00:13:25.476037063,E4_Acc,2024-06-25 12:46:23.418410063,-49.0,42.0,2.0
1904-01-01 00:13:25.507287063,E4_Acc,2024-06-25 12:46:23.449660063,-49.0,41.0,3.0
1904-01-01 00:13:25.538537063,E4_Acc,2024-06-25 12:46:23.480910063,-49.0,42.0,2.0
1904-01-01 00:13:25.569787063,E4_Acc,2024-06-25 12:46:23.512160063,-49.0,41.0,2.0
1904-01-01 00:13:25.601037063,E4_Acc,2024-06-25 12:46:23.543410063,-49.0,42.0,2.0
1904-01-01 00:13:25.632287063,E4_Acc,2024-06-25 12:46:23.574660063,-50.0,41.0,2.0
1904-01-01 00:13:25.663537063,E4_Acc,2024-06-25 12:46:23.605910063,-49.0,41.0,2.0
1904-01-01 00:13:25.694797076,E4_Acc,2024-06-25 12:46:23.637170076,-49.0,41.0,2.0
1904-01-01 00:13:25.726047076,E4_Acc,2024-06-25 12:46:23.668420076,-49.0,41.0,2.0
1904-01-01 00:13:25.757297076,E4_Acc,2024-06-25 12:46:23.699670076,-49.0,41.0,2.0
1904-01-01 00:13:25.788547076,E4_Acc,2024-06-25 12:46:23.730920076,-49.0,41.0,2.0
1904-01-01 00:13:25.819797076,E4_Acc,2024-06-25 12:46:23.762170076,-50.0,41.0,2.0
1904-01-01 00:13:25.851047076,E4_Acc,2024-06-25 12:46:23.793420076,-50.0,41.0,2.0
1904-01-01 00:13:25.882297076,E4_Acc,2024-06-25 12:46:23.824670076,-49.0,41.0,2.0
1904-01-01 00:13:25.913557090,E4_Acc,2024-06-25 12:46:23.855930090,-49.0,41.0,2.0
1904-01-01 00:13:25.944807090,E4_Acc,2024-06-25 12:46:23.887180090,-49.0,41.0,2.0
1904-01-01 00:13:25.976057090,E4_Acc,2024-06-25 12:46:23.918430090,-49.0,41.0,2.0
1904-01-01 00:13:26.007307090,E4_Acc,2024-06-25 12:46:23.949680090,-49.0,42.0,2.0
1904-01-01 00:13:26.038557090,E4_Acc,2024-06-25 12:46:23.980930090,-49.0,42.0,2.0
1904-01-01 00:13:26.069807090,E4_Acc,2024-06-25 12:46:24.012180090,-49.0,42.0,2.0
1904-01-01 00:13:26.101057090,E4_Acc,2024-06-25 12:46:24.043430090,-49.0,42.0,2.0
1904-01-01 00:13:26.132317104,E4_Acc,2024-06-25 12:46:24.074690104,-49.0,42.0,2.0
1904-01-01 00:13:26.163567104,E4_Acc,2024-06-25 12:46:24.105940104,-49.0,42.0,1.0
1904-01-01 00:13:26.194817104,E4_Acc,2024-06-25 12:46:24.137190104,-49.0,42.0,2.0
1904-01-01 00:13:26.226067104,E4_Acc,2024-06-25 12:46:24.168440104,-49.0,42.0,2.0
1904-01-01 00:13:26.257317104,E4_Acc,2024-06-25 12:46:24.199690104,-49.0,42.0,2.0
1904-01-01 00:13:26.288567104,E4_Acc,2024-06-25 12:46:24.230940104,-49.0,42.0,2.0
1904-01-01 00:13:26.319817103,E4_Acc,2024-06-25 12:46:24.262190103,-49.0,42.0,2.0
1904-01-01 00:13:26.351077117,E4_Acc,2024-06-25 12:46:24.293450117,-49.0,42.0,2.0
1904-01-01 00:13:26.382327117,E4_Acc,2024-06-25 12:46:24.324700117,-49.0,42.0,1.0
1904-01-01 00:13:26.413577117,E4_Acc,2024-06-25 12:46:24.355950117,-49.0,42.0,2.0
1904-01-01 00:13:26.444827117,E4_Acc,2024-06-25 12:46:24.387200117,-49.0,42.0,2.0
