Seconds,Stream,E4_Seconds,AccX,AccY,AccZ
1904-01-01 00:20:24.425984881,E4_Acc,2024-06-26 08:12:20.374209881,-14.0,-63.0,4.0
1904-01-01 00:20:24.457234881,E4_Acc,2024-06-26 08:12:20.405459881,-13.0,-62.0,5.0
1904-01-01 00:20:24.488484881,E4_Acc,2024-06-26 08:12:20.436709881,-13.0,-64.0,4.0
1904-01-01 00:20:24.519734881,E4_Acc,2024-06-26 08:12:20.467959881,-13.0,-64.0,5.0
1904-01-01 00:20:24.550984881,E4_Acc,2024-06-26 08:12:20.499209881,-13.0,-63.0,5.0
1904-01-01 00:20:24.582234880,E4_Acc,2024-06-26 08:12:20.530459880,-13.0,-63.0,5.0
1904-01-01 00:20:24.613494894,E4_Acc,2024-06-26 08:12:20.561719894,-14.0,-63.0,6.0
1904-01-01 00:20:24.644744894,E4_Acc,2024-06-26 08:12:20.592969894,-15.0,-62.0,5.0
1904-01-01 00:20:24.675994894,E4_Acc,2024-06-26 08:12:20.624219894,-15.0,-63.0,5.0
1904-01-01 00:20:24.707244894,E4_Acc,2024-06-26 08:12:20.655469894,-15.0,-63.0,5.0
1904-01-01 00:20:24.738494894,E4_Acc,2024-06-26 08:12:20.686719894,-15.0,-63.0,5.0
1904-01-01 00:20:24.769744894,E4_Acc,2024-06-26 08:12:20.717969894,-15.0,-63.0,5.0
1904-01-01 00:20:24.800994894,E4_Acc,2024-06-26 08:12:20.749219894,-14.0,-63.0,5.0
1904-01-01 00:20:24.832254908,E4_Acc,2024-06-26 08:12:20.780479908,-14.0,-64.0,5.0
1904-01-01 00:20:24.863504908,E4_Acc,2024-06-26 08:12:20.811729908,-14.0,-62.0,5.0
1904-01-01 00:20:24.894754908,E4_Acc,2024-06-26 08:12:20.842979908,-13.0,-63.0,5.0
1904-01-01 00:20:24.926004908,E4_Acc,2024-06-26 08:12:20.874229908,-12.0,-63.0,5.0
1904-01-01 00:20:24.957254908,E4_Acc,2024-06-26 08:12:20.905479908,-13.0,-63.0,4.0
1904-01-01 00:20:24.988504908,E4_Acc,2024-06-26 08:12:20.936729908,-12.0,-63.0,4.0
1904-01-01 00:20:25.019754908,E4_Acc,2024-06-26 08:12:20.967979908,-12.0,-63.0,4.0
1904-01-01 00:20:25.051014922,E4_Acc,2024-06-26 08:12:20.999239922,-13.0,-63.0,4.0
1904-01-01 00:20:25.082264922,E4_Acc,2024-06-26 08:12:21.030489922,-14.0,-63.0,5.0
1904-01-01 00:20:25.113514922,E4_Acc,2024-06-26 08:12:21.061739922,-14.0,-63.0,6.0
1904-01-01 00:20:25.144764922,E4_Acc,2024-06-26 08:12:21.092989922,-13.0,-62.0,6.0
1904-01-01 00:20:25.176014922,E4_Acc,2024-06-26 08:12:21.124239922,-16.0,-64.0,5.0
1904-01-01 00:20:25.207264922,E4_Acc,2024-06-26 08:12:21.155489922,-14.0,-63.0,5.0
1904-01-01 00:20:25.238514922,E4_Acc,2024-06-26 08:12:21.186739922,-15.0,-63.0,5.0
1904-01-01 00:20:25.269774935,E4_Acc,2024-06-26 08:12:21.217999935,-14.0,-62.0,4.0
1904-01-01 00:20:25.301024935,E4_Acc,2024-06-26 08:12:21.249249935,-14.0,-62.0,4.0
1904-01-01 00:20:25.332274935,E4_Acc,2024-06-26 08:12:21.280499935,-15.0,-62.0,4.0
1904-01-01 00:20:25.363524935,E4_Acc,2024-06-26 08:12:21.311749935,-15.0,-63.0,5.0
1904-01-01 00:20:25.394774935,E4_Acc,2024-06-26 08:12:21.342999935,-15.0,-63.0,5.0
1904-01-01 00:20:25.426024935,E4_Acc,2024-06-26 08:12:21.374249935,-15.0,-64.0,5.0
1904-01-01 00:20:25.457274935,E4_Acc,2024-06-26 08:12:21.405499935,-14.0,-64.0,5.0
1904-01-01 00:20:25.488534949,E4_Acc,2024-06-26 08:12:21.436759949,-14.0,-64.0,5.0
1904-01-01 00:20:25.519784949,E4_Acc,2024-06-26 08:12:21.468009949,-13.0,-63.0,4.0
1904-01-01 00:20:25.551034949,E4_Acc,2024-06-26 08:12:21.499259949,-13.0,-63.0,4.0
1904-01-01 00:20:25.582284949,E4_Acc,2024-06-26 08:12:21.530509949,-14.0,-63.0,4.0
1904-01-01 00:20:25.613534949,E4_Acc,2024-06-26 08:12:21.561759949,-13.0,-63.0,4.0
1904-01-01 00:20:25.644784949,E4_Acc,2024-06-26 08:12:21.593009949,-14.0,-63.0,4.0
1904-01-01 00:20:25.676034949,E4_Acc,2024-06-26 08:12:21.624259949,-14.0,-64.0,5.0
1904-01-01 00:20:25.707294962,E4_Acc,2024-06-26 08:12:21.655519962,-13.0,-64.0,6.0
1904-01-01 00:20:25.738544962,E4_Acc,2024-06-26 08:12:21.686769962,-13.0,-64.0,6.0
1904-01-01 00:20:25.769794962,E4_Acc,2024-06-26 08:12:21.718019962,-14.0,-65.0,5.0
1904-01-01 00:20:25.801044962,E4_Acc,2024-06-26 08:12:21.749269962,-13.0,-64.0,6.0
1904-01-01 00:20:25.832294962,E4_Acc,2024-06-26 08:12:21.780519962,-13.0,-63.0,5.0
1904-01-01 00:20:25.863544962,E4_Acc,2024-06-26 08:12:21.811769962,-13.0,-63.0,4.0
1904-01-01 00:20:25.894794962,E4_Acc,2024-06-26 08:12:21.843019962,-14.0,-63.0,3.0
1904-01-01 00:20:25.926054976,E4_Acc,2024-06-26 08:12:21.874279976,-14.0,-64.0,3.0
1904-01-01 00:20:25.957304976,E4_Acc,2024-06-26 08:12:21.905529976,-13.0,-66.0,4.0
1904-01-01 00:20:25.988554976,E4_Acc,2024-06-26 08:12:21.936779976,-12.0,-63.0,5.0
1904-01-01 00:20:26.019804976,E4_Acc,2024-06-26 08:12:21.968029976,-12.0,-63.0,6.0
1904-01-01 00:20:26.051054976,E4_Acc,2024-06-26 08:12:21.999279976,-12.0,-62.0,7.0
1904-01-01 00:20:26.082304976,E4_Acc,2024-06-26 08:12:22.030529976,-13.0,-61.0,6.0
1904-01-01 00:20:26.113554976,E4_Acc,2024-06-26 08:12:22.061779976,-14.0,-58.0,6.0
1904-01-01 00:20:26.144814989,E4_Acc,2024-06-26 08:12:22.093039989,-13.0,-58.0,5.0
1904-01-01 00:20:26.176064989,E4_Acc,2024-06-26 08:12:22.124289989,-14.0,-59.0,4.0
1904-01-01 00:20:26.207314989,E4_Acc,2024-06-26 08:12:22.155539989,-14.0,-62.0,4.0
1904-01-01 00:20:26.238564989,E4_Acc,2024-06-26 08:12:22.186789989,-14.0,-65.0,3.0
1904-01-01 00:20:26.269814989,E4_Acc,2024-06-26 08:12:22.218039989,-13.0,-68.0,3.0
1904-01-01 00:20:26.301064989,E4_Acc,2024-06-26 08:12:22.249289989,-11.0,-67.0,4.0
1904-01-01 00:20:26.332325003,E4_Acc,2024-06-26 08:12:22.280550003,-11.0,-65.0,4.0
1904-01-01 00:20:26.363575003,E4_Acc,2024-06-26 08:12:22.311800003,-9.0,-64.0,6.0
1904-01-01 00:20:26.394825003,E4_Acc,2024-06-26 08:12:22.343050003,-8.0,-62.0,6.0
1904-01-01 00:20:26.426075003,E4_Acc,2024-06-26 08:12:22.374300003,-9.0,-60.0,5.0
1904-01-01 00:20:26.457325003,E4_Acc,2024-06-26 08:12:22.405550003,-11.0,-58.0,4.0
1904-01-01 00:20:26.488575003,E4_Acc,2024-06-26 08:12:22.436800003,-12.0,-58.0,3.0
1904-01-01 00:20:26.519825003,E4_Acc,2024-06-26 08:12:22.468050003,-12.0,-59.0,2.0
1904-01-01 00:20:26.551085017,E4_Acc,2024-06-26 08:12:22.499310017,-13.0,-64.0,1.0
1904-01-01 00:20:26.582335017,E4_Acc,2024-06-26 08:12:22.530560017,-15.0,-66.0,1.0
1904-01-01 00:20:26.613585017,E4_Acc,2024-06-26 08:12:22.561810017,-16.0,-70.0,3.0
1904-01-01 00:20:26.644835017,E4_Acc,2024-06-26 08:12:22.593060017,-15.0,-69.0,4.0
1904-01-01 00:20:26.676085017,E4_Acc,2024-06-26 08:12:22.624310017,-14.0,-68.0,7.0
1904-01-01 00:20:26.707335017,E4_Acc,2024-06-26 08:12:22.655560017,-15.0,-68.0,7.0
1904-01-01 00:20:26.738585017,E4_Acc,2024-06-26 08:12:22.686810017,-15.0,-68.0,8.0
1904-01-01 00:20:26.769845030,E4_Acc,2024-06-26 08:12:22.718070030,-13.0,-63.0,7.0
1904-01-01 00:20:26.801095030,E4_Acc,2024-06-26 08:12:22.749320030,-12.0,-60.0,5.0
1904-01-01 00:20:26.832345030,E4_Acc,2024-06-26 08:12:22.780570030,-11.0,-59.0,3.0
1904-01-01 00:20:26.863595030,E4_Acc,2024-06-26 08:12:22.811820030,-11.0,-62.0,1.0
1904-01-01 00:20:26.894845030,E4_Acc,2024-06-26 08:12:22.843070030,-12.0,-64.0,0.0
1904-01-01 00:20:26.926095030,E4_Acc,2024-06-26 08:12:22.874320030,-12.0,-65.0,1.0
1904-01-01 00:20:26.957345030,E4_Acc,2024-06-26 08:12:22.905570030,-11.0,-65.0,2.0
1904-01-01 00:20:26.988605044,E4_Acc,2024-06-26 08:12:22.936830044,-12.0,-63.0,4.0
1904-01-01 00:20:27.019855044,E4_Acc,2024-06-26 08:12:22.968080044,-15.0,-62.0,5.0
1904-01-01 00:20:27.051105044,E4_Acc,2024-06-26 08:12:22.999330044,-16.0,-61.0,6.0
1904-01-01 00:20:27.082355044,E4_Acc,2024-06-26 08:12:23.030580044,-15.0,-59.0,6.0
1904-01-01 00:20:27.113605044,E4_Acc,2024-06-26 08:12:23.061830044,-15.0,-60.0,5.0
1904-01-01 00:20:27.144855044,E4_Acc,2024-06-26 08:12:23.093080044,-15.0,-61.0,2.0
1904-01-01 00:20:27.176105044,E4_Acc,2024-06-26 08:12:23.124330044,-18.0,-67.0,0.0
1904-01-01 00:20:27.207365057,E4_Acc,2024-06-26 08:12:23.155590057,-19.0,-71.0,0.0
1904-01-01 00:20:27.238615057,E4_Acc,2024-06-26 08:12:23.186840057,-13.0,-70.0,0.0
1904-01-01 00:20:27.269865057,E4_Acc,2024-06-26 08:12:23.218090057,-8.0,-69.0,2.0
1904-01-01 00:20:27.301115057,E4_Acc,2024-06-26 08:12:23.249340057,-4.0,-68.0,7.0
1904-01-01 00:20:27.332365057,E4_Acc,2024-06-26 08:12:23.280590057,-7.0,-63.0,7.0
1904-01-01 00:20:27.363615057,E4_Acc,2024-06-26 08:12:23.311840057,-7.0,-61.0,5.0
1904-01-01 00:20:27.394865057,E4_Acc,2024-06-26 08:12:23.343090057,-8.0,-58.0,4.0
1904-01-01 00:20:27.426125071,E4_Acc,2024-06-26 08:12:23.374350071,-10.0,-58.0,2.0
1904-01-01 00:20:27.457375071,E4_Acc,2024-06-26 08:12:23.405600071,-11.0,-60.0,2.0
1904-01-01 00:20:27.488625071,E4_Acc,2024-06-26 08:12:23.436850071,-11.0,-63.0,3.0
1904-01-01 00:20:27.519875071,E4_Acc,2024-06-26 08:12:23.468100071,-12.0,-66.0,3.0
1904-01-01 00:20:27.551125071,E4_Acc,2024-06-26 08:12:23.499350071,-13.0,-69.0,5.0
1904-01-01 00:20:27.582375070,E4_Acc,2024-06-26 08:12:23.530600070,-14.0,-69.0,6.0
1904-01-01 00:20:27.613625071,E4_Acc,2024-06-26 08:12:23.561850071,-13.0,-67.0,6.0
1904-01-01 00:20:27.644885085,E4_Acc,2024-06-26 08:12:23.593110085,-14.0,-64.0,5.0
1904-01-01 00:20:27.676135085,E4_Acc,2024-06-26 08:12:23.624360085,-14.0,-63.0,4.0
1904-01-01 00:20:27.707385085,E4_Acc,2024-06-26 08:12:23.655610085,-14.0,-62.0,2.0
1904-01-01 00:20:27.738635085,E4_Acc,2024-06-26 08:12:23.686860085,-14.0,-62.0,0.0
1904-01-01 00:20:27.769885085,E4_Acc,2024-06-26 08:12:23.718110085,-14.0,-62.0,0.0
1904-01-01 00:20:27.801135085,E4_Acc,2024-06-26 08:12:23.749360085,-14.0,-63.0,1.0
1904-01-01 00:20:27.832385085,E4_Acc,2024-06-26 08:12:23.780610085,-12.0,-63.0,2.0
1904-01-01 00:20:27.863645098,E4_Acc,2024-06-26 08:12:23.811870098,-11.0,-64.0,4.0
1904-01-01 00:20:27.894895098,E4_Acc,2024-06-26 08:12:23.843120098,-13.0,-64.0,5.0
1904-01-01 00:20:27.926145098,E4_Acc,2024-06-26 08:12:23.874370098,-12.0,-65.0,5.0
1904-01-01 00:20:27.957395098,E4_Acc,2024-06-26 08:12:23.905620098,-13.0,-65.0,5.0
1904-01-01 00:20:27.988645098,E4_Acc,2024-06-26 08:12:23.936870098,-13.0,-64.0,5.0
1904-01-01 00:20:28.019895098,E4_Acc,2024-06-26 08:12:23.968120098,-13.0,-63.0,3.0
1904-01-01 00:20:28.051145098,E4_Acc,2024-06-26 08:12:23.999370098,-14.0,-63.0,1.0
1904-01-01 00:20:28.082405112,E4_Acc,2024-06-26 08:12:24.030630112,-14.0,-63.0,1.0
1904-01-01 00:20:28.113655112,E4_Acc,2024-06-26 08:12:24.061880112,-14.0,-64.0,1.0
1904-01-01 00:20:28.144905112,E4_Acc,2024-06-26 08:12:24.093130112,-13.0,-64.0,1.0
1904-01-01 00:20:28.176155112,E4_Acc,2024-06-26 08:12:24.124380112,-12.0,-63.0,3.0
1904-01-01 00:20:28.207405112,E4_Acc,2024-06-26 08:12:24.155630112,-11.0,-63.0,3.0
1904-01-01 00:20:28.238655112,E4_Acc,2024-06-26 08:12:24.186880112,-11.0,-63.0,3.0
1904-01-01 00:20:28.269905112,E4_Acc,2024-06-26 08:12:24.218130112,-11.0,-64.0,3.0
1904-01-01 00:20:28.301164887,E4_Acc,2024-06-26 08:12:24.249389887,-11.0,-64.0,3.0
1904-01-01 00:20:28.332414887,E4_Acc,2024-06-26 08:12:24.280639887,-11.0,-64.0,3.0
1904-01-01 00:20:28.363664887,E4_Acc,2024-06-26 08:12:24.311889887,-12.0,-64.0,3.0
1904-01-01 00:20:28.394914887,E4_Acc,2024-06-26 08:12:24.343139887,-12.0,-63.0,3.0
1904-01-01 00:20:28.426164887,E4_Acc,2024-06-26 08:12:24.374389887,-13.0,-63.0,3.0
1904-01-01 00:20:28.457414887,E4_Acc,2024-06-26 08:12:24.405639887,-13.0,-63.0,3.0
1904-01-01 00:20:28.488664887,E4_Acc,2024-06-26 08:12:24.436889887,-14.0,-63.0,3.0
1904-01-01 00:20:28.519924900,E4_Acc,2024-06-26 08:12:24.468149900,-13.0,-63.0,3.0
1904-01-01 00:20:28.551174900,E4_Acc,2024-06-26 08:12:24.499399900,-13.0,-63.0,4.0
1904-01-01 00:20:28.582424900,E4_Acc,2024-06-26 08:12:24.530649900,-13.0,-63.0,4.0
1904-01-01 00:20:28.613674900,E4_Acc,2024-06-26 08:12:24.561899900,-13.0,-63.0,4.0
1904-01-01 00:20:28.644924900,E4_Acc,2024-06-26 08:12:24.593149900,-13.0,-63.0,4.0
1904-01-01 00:20:28.676174900,E4_Acc,2024-06-26 08:12:24.624399900,-13.0,-63.0,4.0
1904-01-01 00:20:28.707424900,E4_Acc,2024-06-26 08:12:24.655649900,-14.0,-63.0,4.0
1904-01-01 00:20:28.738684914,E4_Acc,2024-06-26 08:12:24.686909914,-14.0,-63.0,4.0
1904-01-01 00:20:28.769934914,E4_Acc,2024-06-26 08:12:24.718159914,-14.0,-64.0,3.0
1904-01-01 00:20:28.801184914,E4_Acc,2024-06-26 08:12:24.749409914,-13.0,-63.0,3.0
1904-01-01 00:20:28.832434914,E4_Acc,2024-06-26 08:12:24.780659914,-13.0,-63.0,3.0
1904-01-01 00:20:28.863684914,E4_Acc,2024-06-26 08:12:24.811909914,-13.0,-63.0,3.0
1904-01-01 00:20:28.894934914,E4_Acc,2024-06-26 08:12:24.843159914,-13.0,-63.0,4.0
1904-01-01 00:20:28.926184914,E4_Acc,2024-06-26 08:12:24.874409914,-13.0,-64.0,4.0
1904-01-01 00:20:28.957444928,E4_Acc,2024-06-26 08:12:24.905669928,-13.0,-63.0,4.0
1904-01-01 00:20:28.988694928,E4_Acc,2024-06-26 08:12:24.936919928,-13.0,-64.0,3.0
1904-01-01 00:20:29.019944928,E4_Acc,2024-06-26 08:12:24.968169928,-13.0,-63.0,3.0
1904-01-01 00:20:29.051194928,E4_Acc,2024-06-26 08:12:24.999419928,-13.0,-63.0,3.0
1904-01-01 00:20:29.082444928,E4_Acc,2024-06-26 08:12:25.030669928,-13.0,-63.0,3.0
1904-01-01 00:20:29.113694928,E4_Acc,2024-06-26 08:12:25.061919928,-13.0,-63.0,3.0
1904-01-01 00:20:29.144954941,E4_Acc,2024-06-26 08:12:25.093179941,-13.0,-63.0,4.0
1904-01-01 00:20:29.176204941,E4_Acc,2024-06-26 08:12:25.124429941,-13.0,-63.0,4.0
1904-01-01 00:20:29.207454941,E4_Acc,2024-06-26 08:12:25.155679941,-13.0,-63.0,4.0
1904-01-01 00:20:29.238704941,E4_Acc,2024-06-26 08:12:25.186929941,-14.0,-63.0,4.0
1904-01-01 00:20:29.269954941,E4_Acc,2024-06-26 08:12:25.218179941,-13.0,-63.0,4.0
1904-01-01 00:20:29.301204941,E4_Acc,2024-06-26 08:12:25.249429941,-13.0,-63.0,4.0
1904-01-01 00:20:29.332454941,E4_Acc,2024-06-26 08:12:25.280679941,-13.0,-63.0,4.0
1904-01-01 00:20:29.363714955,E4_Acc,2024-06-26 08:12:25.311939955,-13.0,-63.0,3.0
1904-01-01 00:20:29.394964955,E4_Acc,2024-06-26 08:12:25.343189955,-13.0,-63.0,4.0
1904-01-01 00:20:29.426214955,E4_Acc,2024-06-26 08:12:25.374439955,-13.0,-63.0,4.0
1904-01-01 00:20:29.457464955,E4_Acc,2024-06-26 08:12:25.405689955,-13.0,-64.0,4.0
1904-01-01 00:20:29.488714955,E4_Acc,2024-06-26 08:12:25.436939955,-13.0,-64.0,4.0
1904-01-01 00:20:29.519964955,E4_Acc,2024-06-26 08:12:25.468189955,-14.0,-64.0,5.0
1904-01-01 00:20:29.551214955,E4_Acc,2024-06-26 08:12:25.499439955,-14.0,-64.0,5.0
1904-01-01 00:20:29.582474967,E4_Acc,2024-06-26 08:12:25.530699967,-14.0,-63.0,5.0
1904-01-01 00:20:29.613724968,E4_Acc,2024-06-26 08:12:25.561949968,-14.0,-63.0,4.0
1904-01-01 00:20:29.644974968,E4_Acc,2024-06-26 08:12:25.593199968,-15.0,-62.0,3.0
1904-01-01 00:20:29.676224968,E4_Acc,2024-06-26 08:12:25.624449968,-14.0,-62.0,3.0
1904-01-01 00:20:29.707474968,E4_Acc,2024-06-26 08:12:25.655699968,-14.0,-63.0,3.0
1904-01-01 00:20:29.738724968,E4_Acc,2024-06-26 08:12:25.686949968,-14.0,-63.0,3.0
1904-01-01 00:20:29.769974968,E4_Acc,2024-06-26 08:12:25.718199968,-13.0,-63.0,4.0
1904-01-01 00:20:29.801234982,E4_Acc,2024-06-26 08:12:25.749459982,-13.0,-64.0,4.0
1904-01-01 00:20:29.832484982,E4_Acc,2024-06-26 08:12:25.780709982,-13.0,-64.0,5.0
1904-01-01 00:20:29.863734982,E4_Acc,2024-06-26 08:12:25.811959982,-12.0,-64.0,5.0
1904-01-01 00:20:29.894984982,E4_Acc,2024-06-26 08:12:25.843209982,-12.0,-64.0,5.0
1904-01-01 00:20:29.926234982,E4_Acc,2024-06-26 08:12:25.874459982,-13.0,-63.0,4.0
1904-01-01 00:20:29.957484982,E4_Acc,2024-06-26 08:12:25.905709982,-13.0,-63.0,4.0
1904-01-01 00:20:29.988734982,E4_Acc,2024-06-26 08:12:25.936959982,-13.0,-62.0,3.0
1904-01-01 00:20:30.019994995,E4_Acc,2024-06-26 08:12:25.968219995,-14.0,-62.0,3.0
1904-01-01 00:20:30.051244995,E4_Acc,2024-06-26 08:12:25.999469995,-14.0,-63.0,4.0
1904-01-01 00:20:30.082494995,E4_Acc,2024-06-26 08:12:26.030719995,-14.0,-64.0,4.0
1904-01-01 00:20:30.113744995,E4_Acc,2024-06-26 08:12:26.061969995,-15.0,-64.0,4.0
1904-01-01 00:20:30.144994995,E4_Acc,2024-06-26 08:12:26.093219995,-14.0,-64.0,4.0
1904-01-01 00:20:30.176244995,E4_Acc,2024-06-26 08:12:26.124469995,-14.0,-63.0,4.0
1904-01-01 00:20:30.207494995,E4_Acc,2024-06-26 08:12:26.155719995,-14.0,-63.0,3.0
1904-01-01 00:20:30.238755009,E4_Acc,2024-06-26 08:12:26.186980009,-13.0,-63.0,4.0
1904-01-01 00:20:30.270005009,E4_Acc,2024-06-26 08:12:26.218230009,-13.0,-63.0,4.0
1904-01-01 00:20:30.301255009,E4_Acc,2024-06-26 08:12:26.249480009,-12.0,-63.0,5.0
1904-01-01 00:20:30.332505009,E4_Acc,2024-06-26 08:12:26.280730009,-13.0,-63.0,5.0
1904-01-01 00:20:30.363755009,E4_Acc,2024-06-26 08:12:26.311980009,-13.0,-64.0,5.0
1904-01-01 00:20:30.395005009,E4_Acc,2024-06-26 08:12:26.343230009,-13.0,-64.0,4.0
1904-01-01 00:20:30.426255009,E4_Acc,2024-06-26 08:12:26.374480009,-13.0,-63.0,3.0
1904-01-01 00:20:30.457515023,E4_Acc,2024-06-26 08:12:26.405740023,-13.0,-63.0,3.0
1904-01-01 00:20:30.488765023,E4_Acc,2024-06-26 08:12:26.436990023,-13.0,-63.0,3.0
1904-01-01 00:20:30.520015023,E4_Acc,2024-06-26 08:12:26.468240023,-13.0,-63.0,2.0
1904-01-01 00:20:30.551265023,E4_Acc,2024-06-26 08:12:26.499490023,-12.0,-63.0,3.0
1904-01-01 00:20:30.582515023,E4_Acc,2024-06-26 08:12:26.530740023,-12.0,-64.0,4.0
1904-01-01 00:20:30.613765023,E4_Acc,2024-06-26 08:12:26.561990023,-12.0,-64.0,4.0
1904-01-01 00:20:30.645015023,E4_Acc,2024-06-26 08:12:26.593240023,-12.0,-63.0,4.0
1904-01-01 00:20:30.676275036,E4_Acc,2024-06-26 08:12:26.624500036,-12.0,-63.0,3.0
1904-01-01 00:20:30.707525036,E4_Acc,2024-06-26 08:12:26.655750036,-13.0,-62.0,3.0
1904-01-01 00:20:30.738775036,E4_Acc,2024-06-26 08:12:26.687000036,-14.0,-63.0,3.0
1904-01-01 00:20:30.770025036,E4_Acc,2024-06-26 08:12:26.718250036,-13.0,-64.0,3.0
1904-01-01 00:20:30.801275036,E4_Acc,2024-06-26 08:12:26.749500036,-14.0,-65.0,3.0
1904-01-01 00:20:30.832525036,E4_Acc,2024-06-26 08:12:26.780750036,-13.0,-65.0,4.0
1904-01-01 00:20:30.863775036,E4_Acc,2024-06-26 08:12:26.812000036,-13.0,-64.0,3.0
1904-01-01 00:20:30.895035050,E4_Acc,2024-06-26 08:12:26.843260050,-12.0,-62.0,4.0
1904-01-01 00:20:30.926285050,E4_Acc,2024-06-26 08:12:26.874510050,-15.0,-62.0,3.0
1904-01-01 00:20:30.957535050,E4_Acc,2024-06-26 08:12:26.905760050,-16.0,-63.0,2.0
1904-01-01 00:20:30.988785050,E4_Acc,2024-06-26 08:12:26.937010050,-15.0,-63.0,3.0
1904-01-01 00:20:31.020035050,E4_Acc,2024-06-26 08:12:26.968260050,-15.0,-63.0,4.0
1904-01-01 00:20:31.051285050,E4_Acc,2024-06-26 08:12:26.999510050,-15.0,-63.0,3.0
1904-01-01 00:20:31.082535050,E4_Acc,2024-06-26 08:12:27.030760050,-15.0,-63.0,3.0
1904-01-01 00:20:31.113795063,E4_Acc,2024-06-26 08:12:27.062020063,-14.0,-62.0,2.0
1904-01-01 00:20:31.145045063,E4_Acc,2024-06-26 08:12:27.093270063,-15.0,-63.0,1.0
1904-01-01 00:20:31.176295063,E4_Acc,2024-06-26 08:12:27.124520063,-12.0,-63.0,1.0
1904-01-01 00:20:31.207545063,E4_Acc,2024-06-26 08:12:27.155770063,-11.0,-63.0,2.0
1904-01-01 00:20:31.238795063,E4_Acc,2024-06-26 08:12:27.187020063,-12.0,-64.0,2.0
1904-01-01 00:20:31.270045063,E4_Acc,2024-06-26 08:12:27.218270063,-13.0,-63.0,2.0
1904-01-01 00:20:31.301305077,E4_Acc,2024-06-26 08:12:27.249530077,-13.0,-64.0,2.0
1904-01-01 00:20:31.332555077,E4_Acc,2024-06-26 08:12:27.280780077,-13.0,-64.0,3.0
1904-01-01 00:20:31.363805077,E4_Acc,2024-06-26 08:12:27.312030077,-15.0,-63.0,4.0
1904-01-01 00:20:31.395055077,E4_Acc,2024-06-26 08:12:27.343280077,-15.0,-63.0,5.0
1904-01-01 00:20:31.426305077,E4_Acc,2024-06-26 08:12:27.374530077,-16.0,-64.0,4.0
1904-01-01 00:20:31.457555077,E4_Acc,2024-06-26 08:12:27.405780077,-15.0,-63.0,4.0
1904-01-01 00:20:31.488805077,E4_Acc,2024-06-26 08:12:27.437030077,-14.0,-64.0,4.0
1904-01-01 00:20:31.520065091,E4_Acc,2024-06-26 08:12:27.468290091,-14.0,-64.0,4.0
1904-01-01 00:20:31.551315091,E4_Acc,2024-06-26 08:12:27.499540091,-13.0,-64.0,3.0
1904-01-01 00:20:31.582565090,E4_Acc,2024-06-26 08:12:27.530790090,-13.0,-63.0,4.0
1904-01-01 00:20:31.613815091,E4_Acc,2024-06-26 08:12:27.562040091,-12.0,-63.0,4.0
1904-01-01 00:20:31.645065091,E4_Acc,2024-06-26 08:12:27.593290091,-12.0,-63.0,4.0
1904-01-01 00:20:31.676315091,E4_Acc,2024-06-26 08:12:27.624540091,-12.0,-63.0,4.0
1904-01-01 00:20:31.707565091,E4_Acc,2024-06-26 08:12:27.655790091,-12.0,-63.0,4.0
1904-01-01 00:20:31.738825104,E4_Acc,2024-06-26 08:12:27.687050104,-13.0,-63.0,4.0
1904-01-01 00:20:31.770075104,E4_Acc,2024-06-26 08:12:27.718300104,-13.0,-64.0,4.0
1904-01-01 00:20:31.801325104,E4_Acc,2024-06-26 08:12:27.749550104,-13.0,-63.0,4.0
1904-01-01 00:20:31.832575104,E4_Acc,2024-06-26 08:12:27.780800104,-13.0,-63.0,4.0
1904-01-01 00:20:31.863825104,E4_Acc,2024-06-26 08:12:27.812050104,-13.0,-63.0,4.0
1904-01-01 00:20:31.895075104,E4_Acc,2024-06-26 08:12:27.843300104,-12.0,-63.0,4.0
1904-01-01 00:20:31.926325104,E4_Acc,2024-06-26 08:12:27.874550104,-13.0,-64.0,4.0
1904-01-01 00:20:31.957585118,E4_Acc,2024-06-26 08:12:27.905810118,-13.0,-64.0,4.0
1904-01-01 00:20:31.988835118,E4_Acc,2024-06-26 08:12:27.937060118,-13.0,-64.0,5.0
1904-01-01 00:20:32.020085118,E4_Acc,2024-06-26 08:12:27.968310118,-13.0,-63.0,5.0
1904-01-01 00:20:32.051335118,E4_Acc,2024-06-26 08:12:27.999560118,-12.0,-63.0,4.0
1904-01-01 00:20:32.082585118,E4_Acc,2024-06-26 08:12:28.030810118,-13.0,-63.0,4.0
1904-01-01 00:20:32.113835118,E4_Acc,2024-06-26 08:12:28.062060118,-13.0,-64.0,4.0
1904-01-01 00:20:32.145085118,E4_Acc,2024-06-26 08:12:28.093310118,-12.0,-64.0,4.0
1904-01-01 00:20:32.176344893,E4_Acc,2024-06-26 08:12:28.124569893,-12.0,-63.0,4.0
1904-01-01 00:20:32.207594893,E4_Acc,2024-06-26 08:12:28.155819893,-11.0,-63.0,4.0
1904-01-01 00:20:32.238844893,E4_Acc,2024-06-26 08:12:28.187069893,-12.0,-63.0,4.0
1904-01-01 00:20:32.270094893,E4_Acc,2024-06-26 08:12:28.218319893,-12.0,-63.0,4.0
1904-01-01 00:20:32.301344893,E4_Acc,2024-06-26 08:12:28.249569893,-12.0,-64.0,5.0
1904-01-01 00:20:32.332594893,E4_Acc,2024-06-26 08:12:28.280819893,-13.0,-63.0,5.0
1904-01-01 00:20:32.363844893,E4_Acc,2024-06-26 08:12:28.312069893,-13.0,-63.0,5.0
1904-01-01 00:20:32.395104906,E4_Acc,2024-06-26 08:12:28.343329906,-14.0,-63.0,5.0
1904-01-01 00:20:32.426354906,E4_Acc,2024-06-26 08:12:28.374579906,-14.0,-63.0,5.0
1904-01-01 00:20:32.457604906,E4_Acc,2024-06-26 08:12:28.405829906,-14.0,-63.0,5.0
1904-01-01 00:20:32.488854906,E4_Acc,2024-06-26 08:12:28.437079906,-13.0,-63.0,5.0
1904-01-01 00:20:32.520104906,E4_Acc,2024-06-26 08:12:28.468329906,-13.0,-63.0,5.0
1904-01-01 00:20:32.551354906,E4_Acc,2024-06-26 08:12:28.499579906,-12.0,-63.0,4.0
1904-01-01 00:20:32.582604906,E4_Acc,2024-06-26 08:12:28.530829906,-12.0,-63.0,4.0
1904-01-01 00:20:32.613864920,E4_Acc,2024-06-26 08:12:28.562089920,-11.0,-64.0,4.0
1904-01-01 00:20:32.645114920,E4_Acc,2024-06-26 08:12:28.593339920,-11.0,-63.0,4.0
1904-01-01 00:20:32.676364920,E4_Acc,2024-06-26 08:12:28.624589920,-11.0,-63.0,4.0
1904-01-01 00:20:32.707614920,E4_Acc,2024-06-26 08:12:28.655839920,-12.0,-63.0,4.0
1904-01-01 00:20:32.738864920,E4_Acc,2024-06-26 08:12:28.687089920,-12.0,-63.0,4.0
1904-01-01 00:20:32.770114920,E4_Acc,2024-06-26 08:12:28.718339920,-13.0,-63.0,4.0
1904-01-01 00:20:32.801364920,E4_Acc,2024-06-26 08:12:28.749589920,-13.0,-63.0,4.0
1904-01-01 00:20:32.832624934,E4_Acc,2024-06-26 08:12:28.780849934,-13.0,-63.0,5.0
1904-01-01 00:20:32.863874934,E4_Acc,2024-06-26 08:12:28.812099934,-13.0,-63.0,5.0
1904-01-01 00:20:32.895124934,E4_Acc,2024-06-26 08:12:28.843349934,-13.0,-63.0,5.0
1904-01-01 00:20:32.926374934,E4_Acc,2024-06-26 08:12:28.874599934,-14.0,-63.0,6.0
1904-01-01 00:20:32.957624934,E4_Acc,2024-06-26 08:12:28.905849934,-14.0,-64.0,6.0
1904-01-01 00:20:32.988874934,E4_Acc,2024-06-26 08:12:28.937099934,-14.0,-64.0,6.0
1904-01-01 00:20:33.020124934,E4_Acc,2024-06-26 08:12:28.968349934,-14.0,-63.0,6.0
1904-01-01 00:20:33.051384947,E4_Acc,2024-06-26 08:12:28.999609947,-14.0,-63.0,5.0
1904-01-01 00:20:33.082634947,E4_Acc,2024-06-26 08:12:29.030859947,-14.0,-63.0,5.0
1904-01-01 00:20:33.113884947,E4_Acc,2024-06-26 08:12:29.062109947,-13.0,-63.0,5.0
1904-01-01 00:20:33.145134947,E4_Acc,2024-06-26 08:12:29.093359947,-13.0,-63.0,5.0
1904-01-01 00:20:33.176384947,E4_Acc,2024-06-26 08:12:29.124609947,-13.0,-63.0,5.0
1904-01-01 00:20:33.207634947,E4_Acc,2024-06-26 08:12:29.155859947,-12.0,-64.0,5.0
1904-01-01 00:20:33.238884947,E4_Acc,2024-06-26 08:12:29.187109947,-12.0,-64.0,5.0
1904-01-01 00:20:33.270144961,E4_Acc,2024-06-26 08:12:29.218369961,-12.0,-65.0,5.0
1904-01-01 00:20:33.301394961,E4_Acc,2024-06-26 08:12:29.249619961,-12.0,-66.0,5.0
1904-01-01 00:20:33.332644961,E4_Acc,2024-06-26 08:12:29.280869961,-12.0,-68.0,5.0
1904-01-01 00:20:33.363894961,E4_Acc,2024-06-26 08:12:29.312119961,-10.0,-68.0,5.0
1904-01-01 00:20:33.395144961,E4_Acc,2024-06-26 08:12:29.343369961,-9.0,-66.0,5.0
1904-01-01 00:20:33.426394961,E4_Acc,2024-06-26 08:12:29.374619961,-9.0,-61.0,5.0
1904-01-01 00:20:33.457644961,E4_Acc,2024-06-26 08:12:29.405869961,-10.0,-60.0,4.0
1904-01-01 00:20:33.488904974,E4_Acc,2024-06-26 08:12:29.437129974,-10.0,-57.0,2.0
1904-01-01 00:20:33.520154974,E4_Acc,2024-06-26 08:12:29.468379974,-11.0,-57.0,3.0
1904-01-01 00:20:33.551404974,E4_Acc,2024-06-26 08:12:29.499629974,-12.0,-61.0,2.0
1904-01-01 00:20:33.582654974,E4_Acc,2024-06-26 08:12:29.530879974,-15.0,-64.0,3.0
1904-01-01 00:20:33.613904974,E4_Acc,2024-06-26 08:12:29.562129974,-17.0,-65.0,3.0
1904-01-01 00:20:33.645154974,E4_Acc,2024-06-26 08:12:29.593379974,-15.0,-63.0,4.0
1904-01-01 00:20:33.676404974,E4_Acc,2024-06-26 08:12:29.624629974,-15.0,-63.0,5.0
1904-01-01 00:20:33.707664988,E4_Acc,2024-06-26 08:12:29.655889988,-18.0,-64.0,5.0
1904-01-01 00:20:33.738914988,E4_Acc,2024-06-26 08:12:29.687139988,-19.0,-65.0,5.0
1904-01-01 00:20:33.770164988,E4_Acc,2024-06-26 08:12:29.718389988,-19.0,-68.0,6.0
1904-01-01 00:20:33.801414988,E4_Acc,2024-06-26 08:12:29.749639988,-17.0,-72.0,6.0
1904-01-01 00:20:33.832664988,E4_Acc,2024-06-26 08:12:29.780889988,-15.0,-73.0,7.0
1904-01-01 00:20:33.863914988,E4_Acc,2024-06-26 08:12:29.812139988,-10.0,-67.0,8.0
1904-01-01 00:20:33.895164988,E4_Acc,2024-06-26 08:12:29.843389988,-10.0,-61.0,5.0
1904-01-01 00:20:33.926425002,E4_Acc,2024-06-26 08:12:29.874650002,-11.0,-60.0,4.0
1904-01-01 00:20:33.957675002,E4_Acc,2024-06-26 08:12:29.905900002,-11.0,-60.0,2.0
1904-01-01 00:20:33.988925002,E4_Acc,2024-06-26 08:12:29.937150002,-11.0,-61.0,1.0
1904-01-01 00:20:34.020175002,E4_Acc,2024-06-26 08:12:29.968400002,-12.0,-66.0,2.0
1904-01-01 00:20:34.051425002,E4_Acc,2024-06-26 08:12:29.999650002,-8.0,-68.0,7.0
1904-01-01 00:20:34.082675002,E4_Acc,2024-06-26 08:12:30.030900002,-5.0,-68.0,10.0
1904-01-01 00:20:34.113935015,E4_Acc,2024-06-26 08:12:30.062160015,-4.0,-68.0,14.0
1904-01-01 00:20:34.145185015,E4_Acc,2024-06-26 08:12:30.093410015,-7.0,-69.0,15.0
1904-01-01 00:20:34.176435015,E4_Acc,2024-06-26 08:12:30.124660015,-9.0,-67.0,14.0
1904-01-01 00:20:34.207685015,E4_Acc,2024-06-26 08:12:30.155910015,-11.0,-62.0,11.0
1904-01-01 00:20:34.238935015,E4_Acc,2024-06-26 08:12:30.187160015,-13.0,-59.0,10.0
1904-01-01 00:20:34.270185015,E4_Acc,2024-06-26 08:12:30.218410015,-15.0,-55.0,5.0
1904-01-01 00:20:34.301435015,E4_Acc,2024-06-26 08:12:30.249660015,-16.0,-54.0,3.0
1904-01-01 00:20:34.332695029,E4_Acc,2024-06-26 08:12:30.280920029,-20.0,-54.0,0.0
1904-01-01 00:20:34.363945029,E4_Acc,2024-06-26 08:12:30.312170029,-23.0,-56.0,-1.0
1904-01-01 00:20:34.395195029,E4_Acc,2024-06-26 08:12:30.343420029,-24.0,-57.0,-2.0
1904-01-01 00:20:34.426445029,E4_Acc,2024-06-26 08:12:30.374670029,-20.0,-59.0,0.0
1904-01-01 00:20:34.457695029,E4_Acc,2024-06-26 08:12:30.405920029,-17.0,-62.0,1.0
1904-01-01 00:20:34.488945029,E4_Acc,2024-06-26 08:12:30.437170029,-17.0,-63.0,1.0
1904-01-01 00:20:34.520195029,E4_Acc,2024-06-26 08:12:30.468420029,-18.0,-66.0,1.0
1904-01-01 00:20:34.551455042,E4_Acc,2024-06-26 08:12:30.499680042,-18.0,-66.0,2.0
1904-01-01 00:20:34.582705042,E4_Acc,2024-06-26 08:12:30.530930042,-17.0,-64.0,4.0
1904-01-01 00:20:34.613955042,E4_Acc,2024-06-26 08:12:30.562180042,-16.0,-62.0,8.0
1904-01-01 00:20:34.645205042,E4_Acc,2024-06-26 08:12:30.593430042,-15.0,-61.0,10.0
1904-01-01 00:20:34.676455042,E4_Acc,2024-06-26 08:12:30.624680042,-13.0,-64.0,17.0
1904-01-01 00:20:34.707705042,E4_Acc,2024-06-26 08:12:30.655930042,-10.0,-67.0,20.0
1904-01-01 00:20:34.738955042,E4_Acc,2024-06-26 08:12:30.687180042,-10.0,-70.0,19.0
1904-01-01 00:20:34.770215056,E4_Acc,2024-06-26 08:12:30.718440056,-12.0,-66.0,11.0
1904-01-01 00:20:34.801465056,E4_Acc,2024-06-26 08:12:30.749690056,-12.0,-65.0,7.0
1904-01-01 00:20:34.832715056,E4_Acc,2024-06-26 08:12:30.780940056,-13.0,-63.0,5.0
1904-01-01 00:20:34.863965056,E4_Acc,2024-06-26 08:12:30.812190056,-13.0,-63.0,4.0
1904-01-01 00:20:34.895215056,E4_Acc,2024-06-26 08:12:30.843440056,-14.0,-62.0,1.0
1904-01-01 00:20:34.926465056,E4_Acc,2024-06-26 08:12:30.874690056,-15.0,-62.0,0.0
1904-01-01 00:20:34.957715056,E4_Acc,2024-06-26 08:12:30.905940056,-15.0,-62.0,0.0
1904-01-01 00:20:34.988975069,E4_Acc,2024-06-26 08:12:30.937200069,-14.0,-62.0,1.0
1904-01-01 00:20:35.020225069,E4_Acc,2024-06-26 08:12:30.968450069,-13.0,-62.0,1.0
1904-01-01 00:20:35.051475069,E4_Acc,2024-06-26 08:12:30.999700069,-13.0,-62.0,2.0
1904-01-01 00:20:35.082725069,E4_Acc,2024-06-26 08:12:31.030950069,-13.0,-63.0,4.0
1904-01-01 00:20:35.113975069,E4_Acc,2024-06-26 08:12:31.062200069,-13.0,-64.0,5.0
1904-01-01 00:20:35.145225069,E4_Acc,2024-06-26 08:12:31.093450069,-12.0,-64.0,7.0
1904-01-01 00:20:35.176475069,E4_Acc,2024-06-26 08:12:31.124700069,-12.0,-65.0,8.0
1904-01-01 00:20:35.207735083,E4_Acc,2024-06-26 08:12:31.155960083,-11.0,-64.0,8.0
1904-01-01 00:20:35.238985083,E4_Acc,2024-06-26 08:12:31.187210083,-12.0,-65.0,8.0
1904-01-01 00:20:35.270235083,E4_Acc,2024-06-26 08:12:31.218460083,-13.0,-64.0,7.0
1904-01-01 00:20:35.301485083,E4_Acc,2024-06-26 08:12:31.249710083,-14.0,-64.0,5.0
1904-01-01 00:20:35.332735083,E4_Acc,2024-06-26 08:12:31.280960083,-14.0,-63.0,5.0
1904-01-01 00:20:35.363985083,E4_Acc,2024-06-26 08:12:31.312210083,-14.0,-63.0,4.0
1904-01-01 00:20:35.395235083,E4_Acc,2024-06-26 08:12:31.343460083,-14.0,-64.0,4.0
1904-01-01 00:20:35.426495097,E4_Acc,2024-06-26 08:12:31.374720097,-14.0,-64.0,4.0
1904-01-01 00:20:35.457745097,E4_Acc,2024-06-26 08:12:31.405970097,-13.0,-64.0,4.0
1904-01-01 00:20:35.488995097,E4_Acc,2024-06-26 08:12:31.437220097,-12.0,-63.0,4.0
1904-01-01 00:20:35.520245097,E4_Acc,2024-06-26 08:12:31.468470097,-13.0,-63.0,4.0
1904-01-01 00:20:35.551495097,E4_Acc,2024-06-26 08:12:31.499720097,-12.0,-62.0,4.0
1904-01-01 00:20:35.582745097,E4_Acc,2024-06-26 08:12:31.530970097,-12.0,-62.0,4.0
1904-01-01 00:20:35.613995097,E4_Acc,2024-06-26 08:12:31.562220097,-13.0,-63.0,4.0
1904-01-01 00:20:35.645255110,E4_Acc,2024-06-26 08:12:31.593480110,-13.0,-63.0,5.0
1904-01-01 00:20:35.676505110,E4_Acc,2024-06-26 08:12:31.624730110,-12.0,-63.0,5.0
1904-01-01 00:20:35.707755110,E4_Acc,2024-06-26 08:12:31.655980110,-12.0,-63.0,5.0
1904-01-01 00:20:35.739005110,E4_Acc,2024-06-26 08:12:31.687230110,-13.0,-63.0,5.0
1904-01-01 00:20:35.770255110,E4_Acc,2024-06-26 08:12:31.718480110,-13.0,-63.0,5.0
1904-01-01 00:20:35.801505110,E4_Acc,2024-06-26 08:12:31.749730110,-13.0,-64.0,5.0
1904-01-01 00:20:35.832755110,E4_Acc,2024-06-26 08:12:31.780980110,-12.0,-64.0,5.0
1904-01-01 00:20:35.864014885,E4_Acc,2024-06-26 08:12:31.812239885,-13.0,-64.0,4.0
1904-01-01 00:20:35.895264885,E4_Acc,2024-06-26 08:12:31.843489885,-13.0,-64.0,4.0
1904-01-01 00:20:35.926514885,E4_Acc,2024-06-26 08:12:31.874739885,-12.0,-63.0,5.0
1904-01-01 00:20:35.957764885,E4_Acc,2024-06-26 08:12:31.905989885,-12.0,-63.0,5.0
1904-01-01 00:20:35.989014885,E4_Acc,2024-06-26 08:12:31.937239885,-12.0,-63.0,5.0
1904-01-01 00:20:36.020264885,E4_Acc,2024-06-26 08:12:31.968489885,-12.0,-63.0,4.0
1904-01-01 00:20:36.051514885,E4_Acc,2024-06-26 08:12:31.999739885,-12.0,-63.0,4.0
1904-01-01 00:20:36.082774899,E4_Acc,2024-06-26 08:12:32.030999899,-12.0,-62.0,4.0
1904-01-01 00:20:36.114024899,E4_Acc,2024-06-26 08:12:32.062249899,-12.0,-63.0,6.0
1904-01-01 00:20:36.145274899,E4_Acc,2024-06-26 08:12:32.093499899,-12.0,-64.0,10.0
1904-01-01 00:20:36.176524899,E4_Acc,2024-06-26 08:12:32.124749899,-12.0,-63.0,11.0
1904-01-01 00:20:36.207774899,E4_Acc,2024-06-26 08:12:32.155999899,-14.0,-62.0,10.0
1904-01-01 00:20:36.239024899,E4_Acc,2024-06-26 08:12:32.187249899,-14.0,-61.0,7.0
1904-01-01 00:20:36.270274899,E4_Acc,2024-06-26 08:12:32.218499899,-16.0,-64.0,5.0
1904-01-01 00:20:36.301534912,E4_Acc,2024-06-26 08:12:32.249759912,-17.0,-65.0,4.0
1904-01-01 00:20:36.332784912,E4_Acc,2024-06-26 08:12:32.281009912,-14.0,-63.0,5.0
1904-01-01 00:20:36.364034912,E4_Acc,2024-06-26 08:12:32.312259912,-14.0,-62.0,5.0
1904-01-01 00:20:36.395284912,E4_Acc,2024-06-26 08:12:32.343509912,-15.0,-63.0,6.0
1904-01-01 00:20:36.426534912,E4_Acc,2024-06-26 08:12:32.374759912,-12.0,-64.0,10.0
1904-01-01 00:20:36.457784912,E4_Acc,2024-06-26 08:12:32.406009912,-11.0,-63.0,9.0
1904-01-01 00:20:36.489044926,E4_Acc,2024-06-26 08:12:32.437269926,-9.0,-63.0,8.0
1904-01-01 00:20:36.520294926,E4_Acc,2024-06-26 08:12:32.468519926,-10.0,-63.0,8.0
1904-01-01 00:20:36.551544926,E4_Acc,2024-06-26 08:12:32.499769926,-13.0,-65.0,8.0
1904-01-01 00:20:36.582794926,E4_Acc,2024-06-26 08:12:32.531019926,-13.0,-65.0,9.0
1904-01-01 00:20:36.614044926,E4_Acc,2024-06-26 08:12:32.562269926,-13.0,-64.0,9.0
1904-01-01 00:20:36.645294926,E4_Acc,2024-06-26 08:12:32.593519926,-14.0,-62.0,10.0
1904-01-01 00:20:36.676544926,E4_Acc,2024-06-26 08:12:32.624769926,-14.0,-62.0,10.0
1904-01-01 00:20:36.707804940,E4_Acc,2024-06-26 08:12:32.656029940,-14.0,-62.0,11.0
1904-01-01 00:20:36.739054940,E4_Acc,2024-06-26 08:12:32.687279940,-14.0,-62.0,11.0
1904-01-01 00:20:36.770304940,E4_Acc,2024-06-26 08:12:32.718529940,-12.0,-62.0,12.0
1904-01-01 00:20:36.801554940,E4_Acc,2024-06-26 08:12:32.749779940,-11.0,-62.0,12.0
1904-01-01 00:20:36.832804940,E4_Acc,2024-06-26 08:12:32.781029940,-11.0,-61.0,12.0
1904-01-01 00:20:36.864054940,E4_Acc,2024-06-26 08:12:32.812279940,-12.0,-62.0,11.0
1904-01-01 00:20:36.895304940,E4_Acc,2024-06-26 08:12:32.843529940,-13.0,-63.0,10.0
1904-01-01 00:20:36.926564953,E4_Acc,2024-06-26 08:12:32.874789953,-13.0,-63.0,9.0
1904-01-01 00:20:36.957814953,E4_Acc,2024-06-26 08:12:32.906039953,-15.0,-63.0,5.0
1904-01-01 00:20:36.989064953,E4_Acc,2024-06-26 08:12:32.937289953,-15.0,-63.0,4.0
1904-01-01 00:20:37.020314953,E4_Acc,2024-06-26 08:12:32.968539953,-12.0,-65.0,7.0
1904-01-01 00:20:37.051564953,E4_Acc,2024-06-26 08:12:32.999789953,-14.0,-65.0,8.0
1904-01-01 00:20:37.082814953,E4_Acc,2024-06-26 08:12:33.031039953,-14.0,-64.0,8.0
1904-01-01 00:20:37.114064953,E4_Acc,2024-06-26 08:12:33.062289953,-14.0,-62.0,9.0
1904-01-01 00:20:37.145324967,E4_Acc,2024-06-26 08:12:33.093549967,-15.0,-61.0,9.0
1904-01-01 00:20:37.176574967,E4_Acc,2024-06-26 08:12:33.124799967,-15.0,-64.0,7.0
1904-01-01 00:20:37.207824967,E4_Acc,2024-06-26 08:12:33.156049967,-12.0,-65.0,10.0
1904-01-01 00:20:37.239074967,E4_Acc,2024-06-26 08:12:33.187299967,-10.0,-64.0,11.0
1904-01-01 00:20:37.270324967,E4_Acc,2024-06-26 08:12:33.218549967,-10.0,-62.0,12.0
1904-01-01 00:20:37.301574967,E4_Acc,2024-06-26 08:12:33.249799967,-11.0,-63.0,11.0
1904-01-01 00:20:37.332824967,E4_Acc,2024-06-26 08:12:33.281049967,-12.0,-63.0,10.0
1904-01-01 00:20:37.364084980,E4_Acc,2024-06-26 08:12:33.312309980,-12.0,-62.0,7.0
1904-01-01 00:20:37.395334980,E4_Acc,2024-06-26 08:12:33.343559980,-12.0,-63.0,6.0
1904-01-01 00:20:37.426584980,E4_Acc,2024-06-26 08:12:33.374809980,-12.0,-63.0,6.0
1904-01-01 00:20:37.457834980,E4_Acc,2024-06-26 08:12:33.406059980,-14.0,-64.0,5.0
1904-01-01 00:20:37.489084980,E4_Acc,2024-06-26 08:12:33.437309980,-15.0,-64.0,4.0
1904-01-01 00:20:37.520334980,E4_Acc,2024-06-26 08:12:33.468559980,-16.0,-62.0,4.0
1904-01-01 00:20:37.551584980,E4_Acc,2024-06-26 08:12:33.499809980,-15.0,-61.0,4.0
1904-01-01 00:20:37.582844994,E4_Acc,2024-06-26 08:12:33.531069994,-14.0,-62.0,4.0
1904-01-01 00:20:37.614094994,E4_Acc,2024-06-26 08:12:33.562319994,-14.0,-62.0,5.0
1904-01-01 00:20:37.645344994,E4_Acc,2024-06-26 08:12:33.593569994,-14.0,-62.0,6.0
1904-01-01 00:20:37.676594994,E4_Acc,2024-06-26 08:12:33.624819994,-14.0,-64.0,8.0
1904-01-01 00:20:37.707844994,E4_Acc,2024-06-26 08:12:33.656069994,-14.0,-64.0,8.0
1904-01-01 00:20:37.739094994,E4_Acc,2024-06-26 08:12:33.687319994,-14.0,-64.0,8.0
1904-01-01 00:20:37.770344994,E4_Acc,2024-06-26 08:12:33.718569994,-12.0,-63.0,9.0
1904-01-01 00:20:37.801605008,E4_Acc,2024-06-26 08:12:33.749830008,-11.0,-63.0,8.0
1904-01-01 00:20:37.832855008,E4_Acc,2024-06-26 08:12:33.781080008,-12.0,-63.0,7.0
1904-01-01 00:20:37.864105008,E4_Acc,2024-06-26 08:12:33.812330008,-13.0,-63.0,6.0
1904-01-01 00:20:37.895355008,E4_Acc,2024-06-26 08:12:33.843580008,-13.0,-63.0,6.0
1904-01-01 00:20:37.926605008,E4_Acc,2024-06-26 08:12:33.874830008,-12.0,-62.0,5.0
1904-01-01 00:20:37.957855008,E4_Acc,2024-06-26 08:12:33.906080008,-13.0,-62.0,5.0
1904-01-01 00:20:37.989105008,E4_Acc,2024-06-26 08:12:33.937330008,-14.0,-63.0,6.0
1904-01-01 00:20:38.020365021,E4_Acc,2024-06-26 08:12:33.968590021,-13.0,-63.0,6.0
1904-01-01 00:20:38.051615021,E4_Acc,2024-06-26 08:12:33.999840021,-14.0,-63.0,7.0
1904-01-01 00:20:38.082865021,E4_Acc,2024-06-26 08:12:34.031090021,-14.0,-63.0,8.0
1904-01-01 00:20:38.114115021,E4_Acc,2024-06-26 08:12:34.062340021,-14.0,-63.0,8.0
1904-01-01 00:20:38.145365021,E4_Acc,2024-06-26 08:12:34.093590021,-14.0,-64.0,8.0
1904-01-01 00:20:38.176615021,E4_Acc,2024-06-26 08:12:34.124840021,-14.0,-64.0,7.0
1904-01-01 00:20:38.207865021,E4_Acc,2024-06-26 08:12:34.156090021,-14.0,-64.0,7.0
1904-01-01 00:20:38.239125035,E4_Acc,2024-06-26 08:12:34.187350035,-14.0,-63.0,6.0
1904-01-01 00:20:38.270375035,E4_Acc,2024-06-26 08:12:34.218600035,-14.0,-62.0,6.0
1904-01-01 00:20:38.301625035,E4_Acc,2024-06-26 08:12:34.249850035,-14.0,-63.0,6.0
1904-01-01 00:20:38.332875035,E4_Acc,2024-06-26 08:12:34.281100035,-14.0,-62.0,6.0
1904-01-01 00:20:38.364125035,E4_Acc,2024-06-26 08:12:34.312350035,-13.0,-63.0,7.0
1904-01-01 00:20:38.395375035,E4_Acc,2024-06-26 08:12:34.343600035,-13.0,-63.0,8.0
1904-01-01 00:20:38.426625035,E4_Acc,2024-06-26 08:12:34.374850035,-13.0,-64.0,8.0
1904-01-01 00:20:38.457885048,E4_Acc,2024-06-26 08:12:34.406110048,-12.0,-64.0,8.0
1904-01-01 00:20:38.489135048,E4_Acc,2024-06-26 08:12:34.437360048,-12.0,-64.0,7.0
1904-01-01 00:20:38.520385048,E4_Acc,2024-06-26 08:12:34.468610048,-12.0,-63.0,7.0
1904-01-01 00:20:38.551635048,E4_Acc,2024-06-26 08:12:34.499860048,-12.0,-62.0,7.0
1904-01-01 00:20:38.582885047,E4_Acc,2024-06-26 08:12:34.531110047,-12.0,-62.0,7.0
1904-01-01 00:20:38.614135048,E4_Acc,2024-06-26 08:12:34.562360048,-12.0,-61.0,6.0
1904-01-01 00:20:38.645395062,E4_Acc,2024-06-26 08:12:34.593620062,-12.0,-64.0,6.0
1904-01-01 00:20:38.676645062,E4_Acc,2024-06-26 08:12:34.624870062,-12.0,-64.0,6.0
1904-01-01 00:20:38.707895062,E4_Acc,2024-06-26 08:12:34.656120062,-13.0,-64.0,6.0
1904-01-01 00:20:38.739145062,E4_Acc,2024-06-26 08:12:34.687370062,-13.0,-64.0,6.0
1904-01-01 00:20:38.770395062,E4_Acc,2024-06-26 08:12:34.718620062,-13.0,-63.0,7.0
1904-01-01 00:20:38.801645062,E4_Acc,2024-06-26 08:12:34.749870062,-13.0,-63.0,7.0
1904-01-01 00:20:38.832895062,E4_Acc,2024-06-26 08:12:34.781120062,-13.0,-62.0,8.0
1904-01-01 00:20:38.864155075,E4_Acc,2024-06-26 08:12:34.812380075,-13.0,-63.0,8.0
1904-01-01 00:20:38.895405075,E4_Acc,2024-06-26 08:12:34.843630075,-14.0,-63.0,8.0
1904-01-01 00:20:38.926655075,E4_Acc,2024-06-26 08:12:34.874880075,-13.0,-64.0,8.0
1904-01-01 00:20:38.957905075,E4_Acc,2024-06-26 08:12:34.906130075,-13.0,-64.0,7.0
1904-01-01 00:20:38.989155075,E4_Acc,2024-06-26 08:12:34.937380075,-13.0,-64.0,7.0
1904-01-01 00:20:39.020405075,E4_Acc,2024-06-26 08:12:34.968630075,-13.0,-63.0,6.0
1904-01-01 00:20:39.051655075,E4_Acc,2024-06-26 08:12:34.999880075,-13.0,-63.0,6.0
1904-01-01 00:20:39.082915089,E4_Acc,2024-06-26 08:12:35.031140089,-12.0,-63.0,6.0
1904-01-01 00:20:39.114165089,E4_Acc,2024-06-26 08:12:35.062390089,-12.0,-63.0,6.0
1904-01-01 00:20:39.145415089,E4_Acc,2024-06-26 08:12:35.093640089,-12.0,-63.0,6.0
1904-01-01 00:20:39.176665089,E4_Acc,2024-06-26 08:12:35.124890089,-12.0,-63.0,7.0
1904-01-01 00:20:39.207915089,E4_Acc,2024-06-26 08:12:35.156140089,-12.0,-63.0,7.0
1904-01-01 00:20:39.239165089,E4_Acc,2024-06-26 08:12:35.187390089,-13.0,-63.0,7.0
1904-01-01 00:20:39.270415089,E4_Acc,2024-06-26 08:12:35.218640089,-13.0,-64.0,7.0
1904-01-01 00:20:39.301675103,E4_Acc,2024-06-26 08:12:35.249900103,-13.0,-65.0,7.0
1904-01-01 00:20:39.332925103,E4_Acc,2024-06-26 08:12:35.281150103,-13.0,-63.0,7.0
1904-01-01 00:20:39.364175103,E4_Acc,2024-06-26 08:12:35.312400103,-13.0,-63.0,7.0
1904-01-01 00:20:39.395425103,E4_Acc,2024-06-26 08:12:35.343650103,-13.0,-62.0,6.0
1904-01-01 00:20:39.426675103,E4_Acc,2024-06-26 08:12:35.374900103,-13.0,-62.0,6.0
1904-01-01 00:20:39.457925103,E4_Acc,2024-06-26 08:12:35.406150103,-13.0,-62.0,6.0
1904-01-01 00:20:39.489175103,E4_Acc,2024-06-26 08:12:35.437400103,-12.0,-64.0,6.0
1904-01-01 00:20:39.520435116,E4_Acc,2024-06-26 08:12:35.468660116,-12.0,-64.0,6.0
1904-01-01 00:20:39.551685116,E4_Acc,2024-06-26 08:12:35.499910116,-12.0,-63.0,6.0
1904-01-01 00:20:39.582935116,E4_Acc,2024-06-26 08:12:35.531160116,-11.0,-63.0,7.0
1904-01-01 00:20:39.614185116,E4_Acc,2024-06-26 08:12:35.562410116,-11.0,-63.0,7.0
1904-01-01 00:20:39.645435116,E4_Acc,2024-06-26 08:12:35.593660116,-12.0,-63.0,7.0
1904-01-01 00:20:39.676685116,E4_Acc,2024-06-26 08:12:35.624910116,-12.0,-63.0,6.0
1904-01-01 00:20:39.707935116,E4_Acc,2024-06-26 08:12:35.656160116,-12.0,-63.0,6.0
1904-01-01 00:20:39.739194891,E4_Acc,2024-06-26 08:12:35.687419891,-13.0,-64.0,6.0
1904-01-01 00:20:39.770444891,E4_Acc,2024-06-26 08:12:35.718669891,-12.0,-64.0,6.0
1904-01-01 00:20:39.801694891,E4_Acc,2024-06-26 08:12:35.749919891,-12.0,-64.0,6.0
1904-01-01 00:20:39.832944891,E4_Acc,2024-06-26 08:12:35.781169891,-12.0,-64.0,6.0
1904-01-01 00:20:39.864194891,E4_Acc,2024-06-26 08:12:35.812419891,-12.0,-63.0,6.0
1904-01-01 00:20:39.895444891,E4_Acc,2024-06-26 08:12:35.843669891,-12.0,-63.0,6.0
1904-01-01 00:20:39.926694891,E4_Acc,2024-06-26 08:12:35.874919891,-12.0,-64.0,6.0
1904-01-01 00:20:39.957954905,E4_Acc,2024-06-26 08:12:35.906179905,-11.0,-63.0,6.0
1904-01-01 00:20:39.989204905,E4_Acc,2024-06-26 08:12:35.937429905,-12.0,-63.0,5.0
1904-01-01 00:20:40.020454905,E4_Acc,2024-06-26 08:12:35.968679905,-12.0,-64.0,6.0
1904-01-01 00:20:40.051704905,E4_Acc,2024-06-26 08:12:35.999929905,-12.0,-63.0,6.0
1904-01-01 00:20:40.082954905,E4_Acc,2024-06-26 08:12:36.031179905,-12.0,-63.0,5.0
1904-01-01 00:20:40.114204905,E4_Acc,2024-06-26 08:12:36.062429905,-12.0,-63.0,5.0
1904-01-01 00:20:40.145454905,E4_Acc,2024-06-26 08:12:36.093679905,-13.0,-64.0,5.0
1904-01-01 00:20:40.176714919,E4_Acc,2024-06-26 08:12:36.124939919,-13.0,-64.0,6.0
1904-01-01 00:20:40.207964919,E4_Acc,2024-06-26 08:12:36.156189919,-13.0,-63.0,6.0
1904-01-01 00:20:40.239214919,E4_Acc,2024-06-26 08:12:36.187439919,-13.0,-63.0,6.0
1904-01-01 00:20:40.270464919,E4_Acc,2024-06-26 08:12:36.218689919,-13.0,-64.0,6.0
1904-01-01 00:20:40.301714919,E4_Acc,2024-06-26 08:12:36.249939919,-12.0,-63.0,6.0
1904-01-01 00:20:40.332964919,E4_Acc,2024-06-26 08:12:36.281189919,-12.0,-64.0,6.0
1904-01-01 00:20:40.364214919,E4_Acc,2024-06-26 08:12:36.312439919,-12.0,-64.0,5.0
1904-01-01 00:20:40.395474932,E4_Acc,2024-06-26 08:12:36.343699932,-12.0,-64.0,5.0
1904-01-01 00:20:40.426724932,E4_Acc,2024-06-26 08:12:36.374949932,-12.0,-63.0,5.0
1904-01-01 00:20:40.457974932,E4_Acc,2024-06-26 08:12:36.406199932,-12.0,-63.0,5.0
1904-01-01 00:20:40.489224932,E4_Acc,2024-06-26 08:12:36.437449932,-12.0,-64.0,5.0
1904-01-01 00:20:40.520474932,E4_Acc,2024-06-26 08:12:36.468699932,-13.0,-64.0,6.0
1904-01-01 00:20:40.551724932,E4_Acc,2024-06-26 08:12:36.499949932,-13.0,-63.0,6.0
1904-01-01 00:20:40.582974932,E4_Acc,2024-06-26 08:12:36.531199932,-13.0,-63.0,6.0
1904-01-01 00:20:40.614234946,E4_Acc,2024-06-26 08:12:36.562459946,-13.0,-63.0,5.0
1904-01-01 00:20:40.645484946,E4_Acc,2024-06-26 08:12:36.593709946,-13.0,-63.0,5.0
1904-01-01 00:20:40.676734946,E4_Acc,2024-06-26 08:12:36.624959946,-13.0,-63.0,6.0
1904-01-01 00:20:40.707984946,E4_Acc,2024-06-26 08:12:36.656209946,-12.0,-63.0,6.0
1904-01-01 00:20:40.739234946,E4_Acc,2024-06-26 08:12:36.687459946,-12.0,-63.0,6.0
1904-01-01 00:20:40.770484946,E4_Acc,2024-06-26 08:12:36.718709946,-12.0,-63.0,6.0
1904-01-01 00:20:40.801734946,E4_Acc,2024-06-26 08:12:36.749959946,-12.0,-63.0,6.0
1904-01-01 00:20:40.832994959,E4_Acc,2024-06-26 08:12:36.781219959,-12.0,-63.0,6.0
1904-01-01 00:20:40.864244959,E4_Acc,2024-06-26 08:12:36.812469959,-12.0,-63.0,6.0
1904-01-01 00:20:40.895494959,E4_Acc,2024-06-26 08:12:36.843719959,-13.0,-63.0,5.0
1904-01-01 00:20:40.926744959,E4_Acc,2024-06-26 08:12:36.874969959,-12.0,-63.0,5.0
1904-01-01 00:20:40.957994959,E4_Acc,2024-06-26 08:12:36.906219959,-12.0,-63.0,5.0
1904-01-01 00:20:40.989244959,E4_Acc,2024-06-26 08:12:36.937469959,-13.0,-63.0,6.0
1904-01-01 00:20:41.020494959,E4_Acc,2024-06-26 08:12:36.968719959,-13.0,-63.0,6.0
1904-01-01 00:20:41.051754973,E4_Acc,2024-06-26 08:12:36.999979973,-13.0,-63.0,6.0
1904-01-01 00:20:41.083004973,E4_Acc,2024-06-26 08:12:37.031229973,-13.0,-63.0,7.0
1904-01-01 00:20:41.114254973,E4_Acc,2024-06-26 08:12:37.062479973,-13.0,-63.0,7.0
1904-01-01 00:20:41.145504973,E4_Acc,2024-06-26 08:12:37.093729973,-13.0,-64.0,6.0
1904-01-01 00:20:41.176754973,E4_Acc,2024-06-26 08:12:37.124979973,-13.0,-64.0,6.0
1904-01-01 00:20:41.208004973,E4_Acc,2024-06-26 08:12:37.156229973,-12.0,-63.0,6.0
1904-01-01 00:20:41.239254973,E4_Acc,2024-06-26 08:12:37.187479973,-13.0,-63.0,5.0
1904-01-01 00:20:41.270514986,E4_Acc,2024-06-26 08:12:37.218739986,-12.0,-63.0,6.0
1904-01-01 00:20:41.301764986,E4_Acc,2024-06-26 08:12:37.249989986,-12.0,-63.0,6.0
1904-01-01 00:20:41.333014986,E4_Acc,2024-06-26 08:12:37.281239986,-12.0,-63.0,6.0
1904-01-01 00:20:41.364264986,E4_Acc,2024-06-26 08:12:37.312489986,-12.0,-64.0,6.0
1904-01-01 00:20:41.395514986,E4_Acc,2024-06-26 08:12:37.343739986,-11.0,-63.0,6.0
1904-01-01 00:20:41.426764986,E4_Acc,2024-06-26 08:12:37.374989986,-12.0,-63.0,6.0
1904-01-01 00:20:41.458025000,E4_Acc,2024-06-26 08:12:37.406250000,-12.0,-63.0,6.0
1904-01-01 00:20:41.489275000,E4_Acc,2024-06-26 08:12:37.437500000,-12.0,-63.0,6.0
1904-01-01 00:20:41.520525000,E4_Acc,2024-06-26 08:12:37.468750000,-13.0,-64.0,6.0
1904-01-01 00:20:41.551775000,E4_Acc,2024-06-26 08:12:37.500000000,-12.0,-63.0,6.0
1904-01-01 00:20:41.583025000,E4_Acc,2024-06-26 08:12:37.531250000,-12.0,-63.0,6.0
1904-01-01 00:20:41.614275000,E4_Acc,2024-06-26 08:12:37.562500000,-13.0,-63.0,6.0
1904-01-01 00:20:41.645525000,E4_Acc,2024-06-26 08:12:37.593750000,-13.0,-63.0,7.0
1904-01-01 00:20:41.676785014,E4_Acc,2024-06-26 08:12:37.625010014,-13.0,-63.0,6.0
1904-01-01 00:20:41.708035014,E4_Acc,2024-06-26 08:12:37.656260014,-13.0,-64.0,6.0
1904-01-01 00:20:41.739285014,E4_Acc,2024-06-26 08:12:37.687510014,-13.0,-64.0,6.0
1904-01-01 00:20:41.770535014,E4_Acc,2024-06-26 08:12:37.718760014,-13.0,-63.0,6.0
1904-01-01 00:20:41.801785014,E4_Acc,2024-06-26 08:12:37.750010014,-13.0,-64.0,6.0
1904-01-01 00:20:41.833035014,E4_Acc,2024-06-26 08:12:37.781260014,-13.0,-63.0,7.0
1904-01-01 00:20:41.864285014,E4_Acc,2024-06-26 08:12:37.812510014,-12.0,-63.0,7.0
1904-01-01 00:20:41.895545027,E4_Acc,2024-06-26 08:12:37.843770027,-12.0,-63.0,7.0
1904-01-01 00:20:41.926795027,E4_Acc,2024-06-26 08:12:37.875020027,-13.0,-63.0,6.0
1904-01-01 00:20:41.958045027,E4_Acc,2024-06-26 08:12:37.906270027,-13.0,-63.0,7.0
1904-01-01 00:20:41.989295027,E4_Acc,2024-06-26 08:12:37.937520027,-12.0,-63.0,7.0
1904-01-01 00:20:42.020545027,E4_Acc,2024-06-26 08:12:37.968770027,-13.0,-63.0,7.0
1904-01-01 00:20:42.051795027,E4_Acc,2024-06-26 08:12:38.000020027,-13.0,-63.0,7.0
1904-01-01 00:20:42.083045027,E4_Acc,2024-06-26 08:12:38.031270027,-12.0,-64.0,7.0
1904-01-01 00:20:42.114305040,E4_Acc,2024-06-26 08:12:38.062530040,-12.0,-63.0,6.0
1904-01-01 00:20:42.145555041,E4_Acc,2024-06-26 08:12:38.093780041,-13.0,-63.0,6.0
1904-01-01 00:20:42.176805041,E4_Acc,2024-06-26 08:12:38.125030041,-12.0,-63.0,6.0
1904-01-01 00:20:42.208055041,E4_Acc,2024-06-26 08:12:38.156280041,-12.0,-63.0,6.0
1904-01-01 00:20:42.239305041,E4_Acc,2024-06-26 08:12:38.187530041,-13.0,-63.0,7.0
1904-01-01 00:20:42.270555041,E4_Acc,2024-06-26 08:12:38.218780041,-12.0,-63.0,7.0
1904-01-01 00:20:42.301805040,E4_Acc,2024-06-26 08:12:38.250030040,-13.0,-63.0,7.0
1904-01-01 00:20:42.333065054,E4_Acc,2024-06-26 08:12:38.281290054,-13.0,-63.0,7.0
1904-01-01 00:20:42.364315054,E4_Acc,2024-06-26 08:12:38.312540054,-13.0,-64.0,7.0
1904-01-01 00:20:42.395565054,E4_Acc,2024-06-26 08:12:38.343790054,-12.0,-63.0,6.0
1904-01-01 00:20:42.426815054,E4_Acc,2024-06-26 08:12:38.375040054,-12.0,-62.0,6.0
1904-01-01 00:20:42.458065054,E4_Acc,2024-06-26 08:12:38.406290054,-12.0,-65.0,7.0
1904-01-01 00:20:42.489315054,E4_Acc,2024-06-26 08:12:38.437540054,-11.0,-62.0,6.0
1904-01-01 00:20:42.520565054,E4_Acc,2024-06-26 08:12:38.468790054,-12.0,-63.0,6.0
1904-01-01 00:20:42.551825067,E4_Acc,2024-06-26 08:12:38.500050067,-12.0,-64.0,6.0
1904-01-01 00:20:42.583075067,E4_Acc,2024-06-26 08:12:38.531300067,-12.0,-63.0,6.0
1904-01-01 00:20:42.614325068,E4_Acc,2024-06-26 08:12:38.562550068,-13.0,-63.0,6.0
1904-01-01 00:20:42.645575068,E4_Acc,2024-06-26 08:12:38.593800068,-13.0,-64.0,7.0
1904-01-01 00:20:42.676825068,E4_Acc,2024-06-26 08:12:38.625050068,-14.0,-63.0,7.0
1904-01-01 00:20:42.708075068,E4_Acc,2024-06-26 08:12:38.656300068,-14.0,-63.0,6.0
1904-01-01 00:20:42.739325068,E4_Acc,2024-06-26 08:12:38.687550068,-15.0,-62.0,6.0
1904-01-01 00:20:42.770585081,E4_Acc,2024-06-26 08:12:38.718810081,-15.0,-63.0,6.0
1904-01-01 00:20:42.801835081,E4_Acc,2024-06-26 08:12:38.750060081,-15.0,-63.0,6.0
1904-01-01 00:20:42.833085081,E4_Acc,2024-06-26 08:12:38.781310081,-15.0,-64.0,6.0
1904-01-01 00:20:42.864335081,E4_Acc,2024-06-26 08:12:38.812560081,-15.0,-64.0,7.0
1904-01-01 00:20:42.895585081,E4_Acc,2024-06-26 08:12:38.843810081,-14.0,-64.0,7.0
1904-01-01 00:20:42.926835081,E4_Acc,2024-06-26 08:12:38.875060081,-14.0,-63.0,6.0
1904-01-01 00:20:42.958085081,E4_Acc,2024-06-26 08:12:38.906310081,-14.0,-64.0,6.0
1904-01-01 00:20:42.989345095,E4_Acc,2024-06-26 08:12:38.937570095,-13.0,-63.0,6.0
1904-01-01 00:20:43.020595095,E4_Acc,2024-06-26 08:12:38.968820095,-13.0,-64.0,6.0
1904-01-01 00:20:43.051845095,E4_Acc,2024-06-26 08:12:39.000070095,-12.0,-64.0,6.0
1904-01-01 00:20:43.083095095,E4_Acc,2024-06-26 08:12:39.031320095,-11.0,-63.0,6.0
1904-01-01 00:20:43.114345095,E4_Acc,2024-06-26 08:12:39.062570095,-10.0,-63.0,6.0
1904-01-01 00:20:43.145595095,E4_Acc,2024-06-26 08:12:39.093820095,-10.0,-63.0,6.0
1904-01-01 00:20:43.176845094,E4_Acc,2024-06-26 08:12:39.125070094,-11.0,-63.0,5.0
1904-01-01 00:20:43.208105109,E4_Acc,2024-06-26 08:12:39.156330109,-11.0,-63.0,5.0
1904-01-01 00:20:43.239355109,E4_Acc,2024-06-26 08:12:39.187580109,-12.0,-62.0,5.0
1904-01-01 00:20:43.270605109,E4_Acc,2024-06-26 08:12:39.218830109,-12.0,-62.0,5.0
1904-01-01 00:20:43.301855109,E4_Acc,2024-06-26 08:12:39.250080109,-12.0,-63.0,6.0
1904-01-01 00:20:43.333105109,E4_Acc,2024-06-26 08:12:39.281330109,-13.0,-63.0,7.0
1904-01-01 00:20:43.364355109,E4_Acc,2024-06-26 08:12:39.312580109,-14.0,-64.0,7.0
1904-01-01 00:20:43.395605109,E4_Acc,2024-06-26 08:12:39.343830109,-14.0,-63.0,6.0
1904-01-01 00:20:43.426864884,E4_Acc,2024-06-26 08:12:39.375089884,-15.0,-63.0,7.0
1904-01-01 00:20:43.458114884,E4_Acc,2024-06-26 08:12:39.406339884,-15.0,-63.0,6.0
1904-01-01 00:20:43.489364884,E4_Acc,2024-06-26 08:12:39.437589884,-15.0,-63.0,6.0
1904-01-01 00:20:43.520614884,E4_Acc,2024-06-26 08:12:39.468839884,-15.0,-63.0,6.0
1904-01-01 00:20:43.551864884,E4_Acc,2024-06-26 08:12:39.500089884,-15.0,-62.0,6.0
1904-01-01 00:20:43.583114884,E4_Acc,2024-06-26 08:12:39.531339884,-14.0,-64.0,6.0
1904-01-01 00:20:43.614374897,E4_Acc,2024-06-26 08:12:39.562599897,-13.0,-65.0,7.0
1904-01-01 00:20:43.645624897,E4_Acc,2024-06-26 08:12:39.593849897,-13.0,-65.0,7.0
1904-01-01 00:20:43.676874897,E4_Acc,2024-06-26 08:12:39.625099897,-13.0,-64.0,7.0
1904-01-01 00:20:43.708124897,E4_Acc,2024-06-26 08:12:39.656349897,-12.0,-64.0,7.0
1904-01-01 00:20:43.739374897,E4_Acc,2024-06-26 08:12:39.687599897,-11.0,-63.0,7.0
1904-01-01 00:20:43.770624897,E4_Acc,2024-06-26 08:12:39.718849897,-11.0,-62.0,7.0
1904-01-01 00:20:43.801874897,E4_Acc,2024-06-26 08:12:39.750099897,-10.0,-63.0,6.0
1904-01-01 00:20:43.833134911,E4_Acc,2024-06-26 08:12:39.781359911,-10.0,-63.0,7.0
1904-01-01 00:20:43.864384911,E4_Acc,2024-06-26 08:12:39.812609911,-10.0,-63.0,7.0
1904-01-01 00:20:43.895634911,E4_Acc,2024-06-26 08:12:39.843859911,-11.0,-63.0,7.0
1904-01-01 00:20:43.926884911,E4_Acc,2024-06-26 08:12:39.875109911,-11.0,-62.0,7.0
1904-01-01 00:20:43.958134911,E4_Acc,2024-06-26 08:12:39.906359911,-12.0,-64.0,7.0
1904-01-01 00:20:43.989384911,E4_Acc,2024-06-26 08:12:39.937609911,-13.0,-64.0,7.0
1904-01-01 00:20:44.020634911,E4_Acc,2024-06-26 08:12:39.968859911,-13.0,-64.0,7.0
1904-01-01 00:20:44.051894925,E4_Acc,2024-06-26 08:12:40.000119925,-13.0,-64.0,7.0
1904-01-01 00:20:44.083144925,E4_Acc,2024-06-26 08:12:40.031369925,-14.0,-63.0,7.0
1904-01-01 00:20:44.114394925,E4_Acc,2024-06-26 08:12:40.062619925,-14.0,-62.0,7.0
1904-01-01 00:20:44.145644925,E4_Acc,2024-06-26 08:12:40.093869925,-14.0,-62.0,6.0
1904-01-01 00:20:44.176894925,E4_Acc,2024-06-26 08:12:40.125119925,-13.0,-62.0,6.0
1904-01-01 00:20:44.208144925,E4_Acc,2024-06-26 08:12:40.156369925,-13.0,-62.0,6.0
1904-01-01 00:20:44.239394925,E4_Acc,2024-06-26 08:12:40.187619925,-13.0,-63.0,6.0
1904-01-01 00:20:44.270654938,E4_Acc,2024-06-26 08:12:40.218879938,-13.0,-63.0,6.0
1904-01-01 00:20:44.301904938,E4_Acc,2024-06-26 08:12:40.250129938,-12.0,-64.0,7.0
1904-01-01 00:20:44.333154938,E4_Acc,2024-06-26 08:12:40.281379938,-12.0,-63.0,7.0
1904-01-01 00:20:44.364404938,E4_Acc,2024-06-26 08:12:40.312629938,-12.0,-63.0,7.0
1904-01-01 00:20:44.395654938,E4_Acc,2024-06-26 08:12:40.343879938,-12.0,-63.0,6.0
1904-01-01 00:20:44.426904938,E4_Acc,2024-06-26 08:12:40.375129938,-12.0,-63.0,7.0
1904-01-01 00:20:44.458154938,E4_Acc,2024-06-26 08:12:40.406379938,-12.0,-63.0,6.0
1904-01-01 00:20:44.489414952,E4_Acc,2024-06-26 08:12:40.437639952,-13.0,-63.0,5.0
1904-01-01 00:20:44.520664952,E4_Acc,2024-06-26 08:12:40.468889952,-13.0,-64.0,5.0
1904-01-01 00:20:44.551914952,E4_Acc,2024-06-26 08:12:40.500139952,-12.0,-64.0,6.0
1904-01-01 00:20:44.583164952,E4_Acc,2024-06-26 08:12:40.531389952,-12.0,-64.0,6.0
1904-01-01 00:20:44.614414952,E4_Acc,2024-06-26 08:12:40.562639952,-12.0,-64.0,6.0
1904-01-01 00:20:44.645664952,E4_Acc,2024-06-26 08:12:40.593889952,-12.0,-64.0,6.0
1904-01-01 00:20:44.676914952,E4_Acc,2024-06-26 08:12:40.625139952,-12.0,-63.0,6.0
1904-01-01 00:20:44.708174965,E4_Acc,2024-06-26 08:12:40.656399965,-12.0,-64.0,6.0
1904-01-01 00:20:44.739424965,E4_Acc,2024-06-26 08:12:40.687649965,-12.0,-64.0,6.0
1904-01-01 00:20:44.770674965,E4_Acc,2024-06-26 08:12:40.718899965,-12.0,-63.0,6.0
1904-01-01 00:20:44.801924965,E4_Acc,2024-06-26 08:12:40.750149965,-13.0,-63.0,6.0
1904-01-01 00:20:44.833174965,E4_Acc,2024-06-26 08:12:40.781399965,-13.0,-63.0,6.0
1904-01-01 00:20:44.864424965,E4_Acc,2024-06-26 08:12:40.812649965,-13.0,-64.0,6.0
1904-01-01 00:20:44.895674965,E4_Acc,2024-06-26 08:12:40.843899965,-13.0,-63.0,6.0
1904-01-01 00:20:44.926934979,E4_Acc,2024-06-26 08:12:40.875159979,-13.0,-63.0,6.0
1904-01-01 00:20:44.958184979,E4_Acc,2024-06-26 08:12:40.906409979,-13.0,-63.0,6.0
1904-01-01 00:20:44.989434979,E4_Acc,2024-06-26 08:12:40.937659979,-13.0,-63.0,6.0
1904-01-01 00:20:45.020684979,E4_Acc,2024-06-26 08:12:40.968909979,-13.0,-63.0,6.0
1904-01-01 00:20:45.051934979,E4_Acc,2024-06-26 08:12:41.000159979,-13.0,-63.0,6.0
1904-01-01 00:20:45.083184978,E4_Acc,2024-06-26 08:12:41.031409978,-13.0,-63.0,6.0
1904-01-01 00:20:45.114434979,E4_Acc,2024-06-26 08:12:41.062659979,-13.0,-63.0,6.0
1904-01-01 00:20:45.145694992,E4_Acc,2024-06-26 08:12:41.093919992,-13.0,-63.0,6.0
1904-01-01 00:20:45.176944992,E4_Acc,2024-06-26 08:12:41.125169992,-13.0,-63.0,6.0
1904-01-01 00:20:45.208194992,E4_Acc,2024-06-26 08:12:41.156419992,-13.0,-63.0,6.0
1904-01-01 00:20:45.239444992,E4_Acc,2024-06-26 08:12:41.187669992,-13.0,-63.0,6.0
1904-01-01 00:20:45.270694992,E4_Acc,2024-06-26 08:12:41.218919992,-13.0,-63.0,6.0
1904-01-01 00:20:45.301944992,E4_Acc,2024-06-26 08:12:41.250169992,-13.0,-63.0,6.0
1904-01-01 00:20:45.333194992,E4_Acc,2024-06-26 08:12:41.281419992,-13.0,-63.0,6.0
1904-01-01 00:20:45.364455006,E4_Acc,2024-06-26 08:12:41.312680006,-13.0,-63.0,6.0
1904-01-01 00:20:45.395705006,E4_Acc,2024-06-26 08:12:41.343930006,-13.0,-63.0,6.0
1904-01-01 00:20:45.426955006,E4_Acc,2024-06-26 08:12:41.375180006,-13.0,-63.0,6.0
1904-01-01 00:20:45.458205006,E4_Acc,2024-06-26 08:12:41.406430006,-12.0,-63.0,6.0
1904-01-01 00:20:45.489455006,E4_Acc,2024-06-26 08:12:41.437680006,-12.0,-63.0,6.0
1904-01-01 00:20:45.520705006,E4_Acc,2024-06-26 08:12:41.468930006,-12.0,-64.0,6.0
1904-01-01 00:20:45.551955006,E4_Acc,2024-06-26 08:12:41.500180006,-12.0,-63.0,6.0
1904-01-01 00:20:45.583215020,E4_Acc,2024-06-26 08:12:41.531440020,-12.0,-63.0,6.0
1904-01-01 00:20:45.614465020,E4_Acc,2024-06-26 08:12:41.562690020,-12.0,-64.0,6.0
1904-01-01 00:20:45.645715020,E4_Acc,2024-06-26 08:12:41.593940020,-12.0,-63.0,6.0
1904-01-01 00:20:45.676965020,E4_Acc,2024-06-26 08:12:41.625190020,-12.0,-63.0,6.0
1904-01-01 00:20:45.708215020,E4_Acc,2024-06-26 08:12:41.656440020,-13.0,-64.0,6.0
1904-01-01 00:20:45.739465020,E4_Acc,2024-06-26 08:12:41.687690020,-13.0,-63.0,6.0
1904-01-01 00:20:45.770715020,E4_Acc,2024-06-26 08:12:41.718940020,-13.0,-63.0,6.0
1904-01-01 00:20:45.801975033,E4_Acc,2024-06-26 08:12:41.750200033,-13.0,-63.0,6.0
1904-01-01 00:20:45.833225033,E4_Acc,2024-06-26 08:12:41.781450033,-14.0,-63.0,6.0
1904-01-01 00:20:45.864475033,E4_Acc,2024-06-26 08:12:41.812700033,-13.0,-63.0,6.0
1904-01-01 00:20:45.895725033,E4_Acc,2024-06-26 08:12:41.843950033,-14.0,-63.0,6.0
1904-01-01 00:20:45.926975033,E4_Acc,2024-06-26 08:12:41.875200033,-14.0,-63.0,6.0
1904-01-01 00:20:45.958225033,E4_Acc,2024-06-26 08:12:41.906450033,-14.0,-63.0,6.0
1904-01-01 00:20:45.989485047,E4_Acc,2024-06-26 08:12:41.937710047,-13.0,-63.0,6.0
1904-01-01 00:20:46.020735047,E4_Acc,2024-06-26 08:12:41.968960047,-13.0,-64.0,7.0
1904-01-01 00:20:46.051985047,E4_Acc,2024-06-26 08:12:42.000210047,-13.0,-64.0,7.0
1904-01-01 00:20:46.083235046,E4_Acc,2024-06-26 08:12:42.031460046,-13.0,-63.0,7.0
1904-01-01 00:20:46.114485047,E4_Acc,2024-06-26 08:12:42.062710047,-13.0,-63.0,7.0
1904-01-01 00:20:46.145735047,E4_Acc,2024-06-26 08:12:42.093960047,-13.0,-63.0,6.0
1904-01-01 00:20:46.176985046,E4_Acc,2024-06-26 08:12:42.125210046,-13.0,-63.0,6.0
1904-01-01 00:20:46.208245060,E4_Acc,2024-06-26 08:12:42.156470060,-13.0,-63.0,6.0
1904-01-01 00:20:46.239495060,E4_Acc,2024-06-26 08:12:42.187720060,-13.0,-63.0,7.0
1904-01-01 00:20:46.270745060,E4_Acc,2024-06-26 08:12:42.218970060,-13.0,-63.0,6.0
1904-01-01 00:20:46.301995060,E4_Acc,2024-06-26 08:12:42.250220060,-13.0,-63.0,6.0
1904-01-01 00:20:46.333245060,E4_Acc,2024-06-26 08:12:42.281470060,-13.0,-63.0,7.0
1904-01-01 00:20:46.364495060,E4_Acc,2024-06-26 08:12:42.312720060,-13.0,-64.0,7.0
1904-01-01 00:20:46.395745060,E4_Acc,2024-06-26 08:12:42.343970060,-13.0,-63.0,7.0
1904-01-01 00:20:46.427005074,E4_Acc,2024-06-26 08:12:42.375230074,-13.0,-63.0,7.0
1904-01-01 00:20:46.458255074,E4_Acc,2024-06-26 08:12:42.406480074,-13.0,-63.0,7.0
1904-01-01 00:20:46.489505074,E4_Acc,2024-06-26 08:12:42.437730074,-13.0,-62.0,7.0
1904-01-01 00:20:46.520755074,E4_Acc,2024-06-26 08:12:42.468980074,-14.0,-63.0,6.0
1904-01-01 00:20:46.552005073,E4_Acc,2024-06-26 08:12:42.500230073,-14.0,-63.0,7.0
1904-01-01 00:20:46.583255073,E4_Acc,2024-06-26 08:12:42.531480073,-13.0,-63.0,7.0
1904-01-01 00:20:46.614505074,E4_Acc,2024-06-26 08:12:42.562730074,-13.0,-63.0,7.0
1904-01-01 00:20:46.645765088,E4_Acc,2024-06-26 08:12:42.593990088,-13.0,-63.0,7.0
1904-01-01 00:20:46.677015088,E4_Acc,2024-06-26 08:12:42.625240088,-13.0,-63.0,7.0
1904-01-01 00:20:46.708265088,E4_Acc,2024-06-26 08:12:42.656490088,-13.0,-62.0,7.0
1904-01-01 00:20:46.739515088,E4_Acc,2024-06-26 08:12:42.687740088,-13.0,-63.0,7.0
1904-01-01 00:20:46.770765088,E4_Acc,2024-06-26 08:12:42.718990088,-13.0,-63.0,6.0
1904-01-01 00:20:46.802015088,E4_Acc,2024-06-26 08:12:42.750240088,-13.0,-63.0,6.0
1904-01-01 00:20:46.833265088,E4_Acc,2024-06-26 08:12:42.781490088,-13.0,-63.0,7.0
1904-01-01 00:20:46.864525101,E4_Acc,2024-06-26 08:12:42.812750101,-13.0,-63.0,7.0
1904-01-01 00:20:46.895775101,E4_Acc,2024-06-26 08:12:42.844000101,-13.0,-63.0,7.0
1904-01-01 00:20:46.927025101,E4_Acc,2024-06-26 08:12:42.875250101,-13.0,-63.0,7.0
1904-01-01 00:20:46.958275101,E4_Acc,2024-06-26 08:12:42.906500101,-13.0,-63.0,7.0
1904-01-01 00:20:46.989525101,E4_Acc,2024-06-26 08:12:42.937750101,-13.0,-63.0,7.0
1904-01-01 00:20:47.020775101,E4_Acc,2024-06-26 08:12:42.969000101,-13.0,-63.0,7.0
1904-01-01 00:20:47.052025101,E4_Acc,2024-06-26 08:12:43.000250101,-13.0,-63.0,7.0
1904-01-01 00:20:47.083285115,E4_Acc,2024-06-26 08:12:43.031510115,-13.0,-63.0,7.0
1904-01-01 00:20:47.114535115,E4_Acc,2024-06-26 08:12:43.062760115,-13.0,-64.0,6.0
1904-01-01 00:20:47.145785115,E4_Acc,2024-06-26 08:12:43.094010115,-13.0,-64.0,6.0
1904-01-01 00:20:47.177035115,E4_Acc,2024-06-26 08:12:43.125260115,-13.0,-63.0,6.0
1904-01-01 00:20:47.208285115,E4_Acc,2024-06-26 08:12:43.156510115,-12.0,-63.0,6.0
1904-01-01 00:20:47.239535115,E4_Acc,2024-06-26 08:12:43.187760115,-12.0,-63.0,6.0
1904-01-01 00:20:47.270785115,E4_Acc,2024-06-26 08:12:43.219010115,-13.0,-63.0,6.0
1904-01-01 00:20:47.302044890,E4_Acc,2024-06-26 08:12:43.250269890,-12.0,-63.0,6.0
1904-01-01 00:20:47.333294890,E4_Acc,2024-06-26 08:12:43.281519890,-13.0,-63.0,7.0
1904-01-01 00:20:47.364544890,E4_Acc,2024-06-26 08:12:43.312769890,-13.0,-64.0,7.0
1904-01-01 00:20:47.395794890,E4_Acc,2024-06-26 08:12:43.344019890,-13.0,-63.0,7.0
1904-01-01 00:20:47.427044890,E4_Acc,2024-06-26 08:12:43.375269890,-13.0,-63.0,7.0
1904-01-01 00:20:47.458294890,E4_Acc,2024-06-26 08:12:43.406519890,-14.0,-63.0,6.0
1904-01-01 00:20:47.489544890,E4_Acc,2024-06-26 08:12:43.437769890,-13.0,-63.0,6.0
1904-01-01 00:20:47.520804903,E4_Acc,2024-06-26 08:12:43.469029903,-14.0,-63.0,6.0
1904-01-01 00:20:47.552054903,E4_Acc,2024-06-26 08:12:43.500279903,-14.0,-63.0,6.0
1904-01-01 00:20:47.583304903,E4_Acc,2024-06-26 08:12:43.531529903,-13.0,-63.0,7.0
1904-01-01 00:20:47.614554903,E4_Acc,2024-06-26 08:12:43.562779903,-13.0,-63.0,7.0
1904-01-01 00:20:47.645804903,E4_Acc,2024-06-26 08:12:43.594029903,-13.0,-63.0,6.0
1904-01-01 00:20:47.677054903,E4_Acc,2024-06-26 08:12:43.625279903,-13.0,-63.0,6.0
1904-01-01 00:20:47.708304903,E4_Acc,2024-06-26 08:12:43.656529903,-13.0,-63.0,6.0
1904-01-01 00:20:47.739564917,E4_Acc,2024-06-26 08:12:43.687789917,-13.0,-63.0,6.0
1904-01-01 00:20:47.770814917,E4_Acc,2024-06-26 08:12:43.719039917,-13.0,-63.0,7.0
1904-01-01 00:20:47.802064917,E4_Acc,2024-06-26 08:12:43.750289917,-13.0,-63.0,7.0
1904-01-01 00:20:47.833314917,E4_Acc,2024-06-26 08:12:43.781539917,-13.0,-63.0,7.0
1904-01-01 00:20:47.864564917,E4_Acc,2024-06-26 08:12:43.812789917,-13.0,-63.0,7.0
1904-01-01 00:20:47.895814917,E4_Acc,2024-06-26 08:12:43.844039917,-13.0,-64.0,7.0
1904-01-01 00:20:47.927064917,E4_Acc,2024-06-26 08:12:43.875289917,-14.0,-64.0,7.0
1904-01-01 00:20:47.958324931,E4_Acc,2024-06-26 08:12:43.906549931,-14.0,-63.0,6.0
1904-01-01 00:20:47.989574931,E4_Acc,2024-06-26 08:12:43.937799931,-13.0,-63.0,6.0
1904-01-01 00:20:48.020824931,E4_Acc,2024-06-26 08:12:43.969049931,-14.0,-63.0,6.0
1904-01-01 00:20:48.052074931,E4_Acc,2024-06-26 08:12:44.000299931,-14.0,-63.0,6.0
1904-01-01 00:20:48.083324931,E4_Acc,2024-06-26 08:12:44.031549931,-14.0,-63.0,6.0
1904-01-01 00:20:48.114574931,E4_Acc,2024-06-26 08:12:44.062799931,-13.0,-63.0,7.0
1904-01-01 00:20:48.145824931,E4_Acc,2024-06-26 08:12:44.094049931,-13.0,-63.0,7.0
1904-01-01 00:20:48.177084944,E4_Acc,2024-06-26 08:12:44.125309944,-13.0,-63.0,7.0
1904-01-01 00:20:48.208334944,E4_Acc,2024-06-26 08:12:44.156559944,-13.0,-63.0,7.0
1904-01-01 00:20:48.239584944,E4_Acc,2024-06-26 08:12:44.187809944,-13.0,-63.0,7.0
1904-01-01 00:20:48.270834944,E4_Acc,2024-06-26 08:12:44.219059944,-13.0,-63.0,6.0
1904-01-01 00:20:48.302084944,E4_Acc,2024-06-26 08:12:44.250309944,-13.0,-63.0,6.0
1904-01-01 00:20:48.333334944,E4_Acc,2024-06-26 08:12:44.281559944,-14.0,-63.0,6.0
1904-01-01 00:20:48.364584944,E4_Acc,2024-06-26 08:12:44.312809944,-13.0,-64.0,6.0
1904-01-01 00:20:48.395844958,E4_Acc,2024-06-26 08:12:44.344069958,-13.0,-64.0,7.0
1904-01-01 00:20:48.427094958,E4_Acc,2024-06-26 08:12:44.375319958,-13.0,-63.0,7.0
1904-01-01 00:20:48.458344958,E4_Acc,2024-06-26 08:12:44.406569958,-13.0,-64.0,7.0
1904-01-01 00:20:48.489594958,E4_Acc,2024-06-26 08:12:44.437819958,-13.0,-63.0,7.0
1904-01-01 00:20:48.520844958,E4_Acc,2024-06-26 08:12:44.469069958,-12.0,-64.0,7.0
1904-01-01 00:20:48.552094957,E4_Acc,2024-06-26 08:12:44.500319957,-13.0,-63.0,7.0
1904-01-01 00:20:48.583344957,E4_Acc,2024-06-26 08:12:44.531569957,-13.0,-63.0,6.0
1904-01-01 00:20:48.614604971,E4_Acc,2024-06-26 08:12:44.562829971,-13.0,-63.0,6.0
1904-01-01 00:20:48.645854971,E4_Acc,2024-06-26 08:12:44.594079971,-13.0,-63.0,6.0
1904-01-01 00:20:48.677104971,E4_Acc,2024-06-26 08:12:44.625329971,-13.0,-63.0,6.0
1904-01-01 00:20:48.708354971,E4_Acc,2024-06-26 08:12:44.656579971,-13.0,-63.0,6.0
1904-01-01 00:20:48.739604971,E4_Acc,2024-06-26 08:12:44.687829971,-13.0,-63.0,7.0
1904-01-01 00:20:48.770854971,E4_Acc,2024-06-26 08:12:44.719079971,-13.0,-63.0,7.0
1904-01-01 00:20:48.802114985,E4_Acc,2024-06-26 08:12:44.750339985,-14.0,-63.0,8.0
1904-01-01 00:20:48.833364985,E4_Acc,2024-06-26 08:12:44.781589985,-14.0,-63.0,8.0
1904-01-01 00:20:48.864614985,E4_Acc,2024-06-26 08:12:44.812839985,-14.0,-62.0,7.0
1904-01-01 00:20:48.895864985,E4_Acc,2024-06-26 08:12:44.844089985,-14.0,-63.0,7.0
1904-01-01 00:20:48.927114985,E4_Acc,2024-06-26 08:12:44.875339985,-14.0,-63.0,7.0
1904-01-01 00:20:48.958364985,E4_Acc,2024-06-26 08:12:44.906589985,-15.0,-63.0,7.0
1904-01-01 00:20:48.989614985,E4_Acc,2024-06-26 08:12:44.937839985,-14.0,-62.0,8.0
1904-01-01 00:20:49.020874998,E4_Acc,2024-06-26 08:12:44.969099998,-14.0,-62.0,7.0
1904-01-01 00:20:49.052124998,E4_Acc,2024-06-26 08:12:45.000349998,-15.0,-63.0,8.0
1904-01-01 00:20:49.083374997,E4_Acc,2024-06-26 08:12:45.031599997,-15.0,-63.0,8.0
1904-01-01 00:20:49.114624998,E4_Acc,2024-06-26 08:12:45.062849998,-14.0,-63.0,7.0
1904-01-01 00:20:49.145874998,E4_Acc,2024-06-26 08:12:45.094099998,-14.0,-63.0,8.0
1904-01-01 00:20:49.177124997,E4_Acc,2024-06-26 08:12:45.125349997,-13.0,-63.0,7.0
1904-01-01 00:20:49.208374998,E4_Acc,2024-06-26 08:12:45.156599998,-12.0,-63.0,7.0
1904-01-01 00:20:49.239635012,E4_Acc,2024-06-26 08:12:45.187860012,-12.0,-63.0,7.0
1904-01-01 00:20:49.270885012,E4_Acc,2024-06-26 08:12:45.219110012,-11.0,-62.0,7.0
1904-01-01 00:20:49.302135012,E4_Acc,2024-06-26 08:12:45.250360012,-11.0,-63.0,7.0
1904-01-01 00:20:49.333385012,E4_Acc,2024-06-26 08:12:45.281610012,-11.0,-62.0,7.0
1904-01-01 00:20:49.364635012,E4_Acc,2024-06-26 08:12:45.312860012,-11.0,-64.0,6.0
1904-01-01 00:20:49.395885012,E4_Acc,2024-06-26 08:12:45.344110012,-11.0,-63.0,7.0
1904-01-01 00:20:49.427135012,E4_Acc,2024-06-26 08:12:45.375360012,-12.0,-63.0,6.0
1904-01-01 00:20:49.458395026,E4_Acc,2024-06-26 08:12:45.406620026,-13.0,-64.0,7.0
1904-01-01 00:20:49.489645026,E4_Acc,2024-06-26 08:12:45.437870026,-14.0,-63.0,7.0
1904-01-01 00:20:49.520895026,E4_Acc,2024-06-26 08:12:45.469120026,-14.0,-63.0,8.0
1904-01-01 00:20:49.552145026,E4_Acc,2024-06-26 08:12:45.500370026,-15.0,-62.0,8.0
1904-01-01 00:20:49.583395026,E4_Acc,2024-06-26 08:12:45.531620026,-15.0,-63.0,8.0
1904-01-01 00:20:49.614645026,E4_Acc,2024-06-26 08:12:45.562870026,-16.0,-64.0,8.0
1904-01-01 00:20:49.645895026,E4_Acc,2024-06-26 08:12:45.594120026,-16.0,-64.0,8.0
1904-01-01 00:20:49.677155039,E4_Acc,2024-06-26 08:12:45.625380039,-16.0,-63.0,7.0
1904-01-01 00:20:49.708405039,E4_Acc,2024-06-26 08:12:45.656630039,-15.0,-63.0,6.0
1904-01-01 00:20:49.739655039,E4_Acc,2024-06-26 08:12:45.687880039,-15.0,-63.0,6.0
1904-01-01 00:20:49.770905039,E4_Acc,2024-06-26 08:12:45.719130039,-14.0,-63.0,6.0
1904-01-01 00:20:49.802155039,E4_Acc,2024-06-26 08:12:45.750380039,-14.0,-63.0,6.0
1904-01-01 00:20:49.833405039,E4_Acc,2024-06-26 08:12:45.781630039,-13.0,-62.0,6.0
1904-01-01 00:20:49.864655039,E4_Acc,2024-06-26 08:12:45.812880039,-12.0,-63.0,6.0
1904-01-01 00:20:49.895915053,E4_Acc,2024-06-26 08:12:45.844140053,-12.0,-63.0,7.0
1904-01-01 00:20:49.927165053,E4_Acc,2024-06-26 08:12:45.875390053,-12.0,-63.0,7.0
1904-01-01 00:20:49.958415053,E4_Acc,2024-06-26 08:12:45.906640053,-12.0,-63.0,7.0
1904-01-01 00:20:49.989665053,E4_Acc,2024-06-26 08:12:45.937890053,-12.0,-62.0,7.0
1904-01-01 00:20:50.020915053,E4_Acc,2024-06-26 08:12:45.969140053,-13.0,-63.0,7.0
1904-01-01 00:20:50.052165053,E4_Acc,2024-06-26 08:12:46.000390053,-13.0,-63.0,7.0
1904-01-01 00:20:50.083415053,E4_Acc,2024-06-26 08:12:46.031640053,-13.0,-63.0,6.0
1904-01-01 00:20:50.114675066,E4_Acc,2024-06-26 08:12:46.062900066,-13.0,-63.0,7.0
1904-01-01 00:20:50.145925066,E4_Acc,2024-06-26 08:12:46.094150066,-14.0,-62.0,6.0
1904-01-01 00:20:50.177175066,E4_Acc,2024-06-26 08:12:46.125400066,-14.0,-63.0,7.0
1904-01-01 00:20:50.208425066,E4_Acc,2024-06-26 08:12:46.156650066,-14.0,-63.0,7.0
1904-01-01 00:20:50.239675066,E4_Acc,2024-06-26 08:12:46.187900066,-14.0,-63.0,7.0
1904-01-01 00:20:50.270925066,E4_Acc,2024-06-26 08:12:46.219150066,-14.0,-63.0,7.0
1904-01-01 00:20:50.302175065,E4_Acc,2024-06-26 08:12:46.250400065,-14.0,-63.0,7.0
1904-01-01 00:20:50.333435080,E4_Acc,2024-06-26 08:12:46.281660080,-14.0,-63.0,7.0
1904-01-01 00:20:50.364685080,E4_Acc,2024-06-26 08:12:46.312910080,-14.0,-63.0,7.0
1904-01-01 00:20:50.395935080,E4_Acc,2024-06-26 08:12:46.344160080,-14.0,-63.0,7.0
1904-01-01 00:20:50.427185080,E4_Acc,2024-06-26 08:12:46.375410080,-14.0,-63.0,7.0
1904-01-01 00:20:50.458435080,E4_Acc,2024-06-26 08:12:46.406660080,-14.0,-63.0,7.0
1904-01-01 00:20:50.489685080,E4_Acc,2024-06-26 08:12:46.437910080,-13.0,-63.0,7.0
1904-01-01 00:20:50.520935080,E4_Acc,2024-06-26 08:12:46.469160080,-14.0,-63.0,6.0
1904-01-01 00:20:50.552195094,E4_Acc,2024-06-26 08:12:46.500420094,-13.0,-63.0,7.0
1904-01-01 00:20:50.583445094,E4_Acc,2024-06-26 08:12:46.531670094,-13.0,-63.0,7.0
1904-01-01 00:20:50.614695094,E4_Acc,2024-06-26 08:12:46.562920094,-13.0,-63.0,7.0
1904-01-01 00:20:50.645945094,E4_Acc,2024-06-26 08:12:46.594170094,-13.0,-64.0,7.0
1904-01-01 00:20:50.677195094,E4_Acc,2024-06-26 08:12:46.625420094,-13.0,-64.0,6.0
1904-01-01 00:20:50.708445094,E4_Acc,2024-06-26 08:12:46.656670094,-13.0,-63.0,6.0
1904-01-01 00:20:50.739695094,E4_Acc,2024-06-26 08:12:46.687920094,-13.0,-63.0,6.0
1904-01-01 00:20:50.770955107,E4_Acc,2024-06-26 08:12:46.719180107,-12.0,-64.0,6.0
1904-01-01 00:20:50.802205107,E4_Acc,2024-06-26 08:12:46.750430107,-14.0,-62.0,6.0
1904-01-01 00:20:50.833455107,E4_Acc,2024-06-26 08:12:46.781680107,-13.0,-63.0,6.0
1904-01-01 00:20:50.864705107,E4_Acc,2024-06-26 08:12:46.812930107,-12.0,-65.0,7.0
1904-01-01 00:20:50.895955107,E4_Acc,2024-06-26 08:12:46.844180107,-14.0,-63.0,6.0
1904-01-01 00:20:50.927205107,E4_Acc,2024-06-26 08:12:46.875430107,-14.0,-64.0,6.0
1904-01-01 00:20:50.958464882,E4_Acc,2024-06-26 08:12:46.906689882,-13.0,-62.0,6.0
1904-01-01 00:20:50.989714882,E4_Acc,2024-06-26 08:12:46.937939882,-14.0,-62.0,5.0
1904-01-01 00:20:51.020964882,E4_Acc,2024-06-26 08:12:46.969189882,-13.0,-63.0,5.0
1904-01-01 00:20:51.052214882,E4_Acc,2024-06-26 08:12:47.000439882,-14.0,-63.0,6.0
1904-01-01 00:20:51.083464882,E4_Acc,2024-06-26 08:12:47.031689882,-14.0,-63.0,6.0
1904-01-01 00:20:51.114714882,E4_Acc,2024-06-26 08:12:47.062939882,-13.0,-63.0,6.0
1904-01-01 00:20:51.145964882,E4_Acc,2024-06-26 08:12:47.094189882,-13.0,-63.0,6.0
1904-01-01 00:20:51.177224896,E4_Acc,2024-06-26 08:12:47.125449896,-14.0,-62.0,6.0
1904-01-01 00:20:51.208474896,E4_Acc,2024-06-26 08:12:47.156699896,-14.0,-63.0,6.0
1904-01-01 00:20:51.239724896,E4_Acc,2024-06-26 08:12:47.187949896,-14.0,-63.0,6.0
1904-01-01 00:20:51.270974896,E4_Acc,2024-06-26 08:12:47.219199896,-14.0,-64.0,6.0
1904-01-01 00:20:51.302224896,E4_Acc,2024-06-26 08:12:47.250449896,-14.0,-64.0,6.0
1904-01-01 00:20:51.333474896,E4_Acc,2024-06-26 08:12:47.281699896,-14.0,-63.0,5.0
1904-01-01 00:20:51.364724896,E4_Acc,2024-06-26 08:12:47.312949896,-14.0,-64.0,5.0
1904-01-01 00:20:51.395984909,E4_Acc,2024-06-26 08:12:47.344209909,-13.0,-64.0,5.0
1904-01-01 00:20:51.427234909,E4_Acc,2024-06-26 08:12:47.375459909,-12.0,-64.0,6.0
1904-01-01 00:20:51.458484909,E4_Acc,2024-06-26 08:12:47.406709909,-12.0,-64.0,6.0
1904-01-01 00:20:51.489734909,E4_Acc,2024-06-26 08:12:47.437959909,-12.0,-63.0,6.0
1904-01-01 00:20:51.520984909,E4_Acc,2024-06-26 08:12:47.469209909,-10.0,-62.0,7.0
1904-01-01 00:20:51.552234909,E4_Acc,2024-06-26 08:12:47.500459909,-10.0,-61.0,7.0
1904-01-01 00:20:51.583484909,E4_Acc,2024-06-26 08:12:47.531709909,-10.0,-60.0,6.0
1904-01-01 00:20:51.614744923,E4_Acc,2024-06-26 08:12:47.562969923,-13.0,-64.0,5.0
1904-01-01 00:20:51.645994923,E4_Acc,2024-06-26 08:12:47.594219923,-13.0,-65.0,5.0
1904-01-01 00:20:51.677244923,E4_Acc,2024-06-26 08:12:47.625469923,-12.0,-65.0,6.0
1904-01-01 00:20:51.708494923,E4_Acc,2024-06-26 08:12:47.656719923,-11.0,-65.0,6.0
1904-01-01 00:20:51.739744923,E4_Acc,2024-06-26 08:12:47.687969923,-13.0,-64.0,5.0
1904-01-01 00:20:51.770994923,E4_Acc,2024-06-26 08:12:47.719219923,-15.0,-63.0,4.0
1904-01-01 00:20:51.802244923,E4_Acc,2024-06-26 08:12:47.750469923,-15.0,-63.0,5.0
1904-01-01 00:20:51.833504937,E4_Acc,2024-06-26 08:12:47.781729937,-12.0,-63.0,6.0
1904-01-01 00:20:51.864754937,E4_Acc,2024-06-26 08:12:47.812979937,-12.0,-63.0,6.0
1904-01-01 00:20:51.896004937,E4_Acc,2024-06-26 08:12:47.844229937,-13.0,-64.0,7.0
1904-01-01 00:20:51.927254937,E4_Acc,2024-06-26 08:12:47.875479937,-12.0,-63.0,7.0
1904-01-01 00:20:51.958504937,E4_Acc,2024-06-26 08:12:47.906729937,-11.0,-63.0,7.0
1904-01-01 00:20:51.989754937,E4_Acc,2024-06-26 08:12:47.937979937,-11.0,-64.0,6.0
1904-01-01 00:20:52.021004937,E4_Acc,2024-06-26 08:12:47.969229937,-12.0,-64.0,6.0
1904-01-01 00:20:52.052264949,E4_Acc,2024-06-26 08:12:48.000489949,-11.0,-63.0,5.0
1904-01-01 00:20:52.083514950,E4_Acc,2024-06-26 08:12:48.031739950,-11.0,-63.0,5.0
1904-01-01 00:20:52.114764950,E4_Acc,2024-06-26 08:12:48.062989950,-12.0,-63.0,5.0
1904-01-01 00:20:52.146014950,E4_Acc,2024-06-26 08:12:48.094239950,-13.0,-63.0,5.0
1904-01-01 00:20:52.177264949,E4_Acc,2024-06-26 08:12:48.125489949,-13.0,-63.0,6.0
1904-01-01 00:20:52.208514950,E4_Acc,2024-06-26 08:12:48.156739950,-12.0,-63.0,6.0
1904-01-01 00:20:52.239764950,E4_Acc,2024-06-26 08:12:48.187989950,-12.0,-63.0,7.0
1904-01-01 00:20:52.271024964,E4_Acc,2024-06-26 08:12:48.219249964,-13.0,-64.0,7.0
1904-01-01 00:20:52.302274964,E4_Acc,2024-06-26 08:12:48.250499964,-13.0,-63.0,7.0
1904-01-01 00:20:52.333524964,E4_Acc,2024-06-26 08:12:48.281749964,-13.0,-63.0,6.0
1904-01-01 00:20:52.364774964,E4_Acc,2024-06-26 08:12:48.312999964,-13.0,-63.0,5.0
1904-01-01 00:20:52.396024964,E4_Acc,2024-06-26 08:12:48.344249964,-13.0,-63.0,5.0
1904-01-01 00:20:52.427274964,E4_Acc,2024-06-26 08:12:48.375499964,-13.0,-63.0,5.0
1904-01-01 00:20:52.458524964,E4_Acc,2024-06-26 08:12:48.406749964,-13.0,-63.0,6.0
1904-01-01 00:20:52.489784977,E4_Acc,2024-06-26 08:12:48.438009977,-13.0,-63.0,6.0
1904-01-01 00:20:52.521034977,E4_Acc,2024-06-26 08:12:48.469259977,-13.0,-63.0,6.0
1904-01-01 00:20:52.552284977,E4_Acc,2024-06-26 08:12:48.500509977,-13.0,-63.0,6.0
1904-01-01 00:20:52.583534977,E4_Acc,2024-06-26 08:12:48.531759977,-13.0,-64.0,6.0
1904-01-01 00:20:52.614784977,E4_Acc,2024-06-26 08:12:48.563009977,-13.0,-64.0,6.0
1904-01-01 00:20:52.646034977,E4_Acc,2024-06-26 08:12:48.594259977,-13.0,-63.0,6.0
1904-01-01 00:20:52.677284977,E4_Acc,2024-06-26 08:12:48.625509977,-12.0,-63.0,6.0
1904-01-01 00:20:52.708544991,E4_Acc,2024-06-26 08:12:48.656769991,-12.0,-63.0,6.0
1904-01-01 00:20:52.739794991,E4_Acc,2024-06-26 08:12:48.688019991,-12.0,-63.0,5.0
1904-01-01 00:20:52.771044991,E4_Acc,2024-06-26 08:12:48.719269991,-12.0,-64.0,5.0
1904-01-01 00:20:52.802294991,E4_Acc,2024-06-26 08:12:48.750519991,-12.0,-64.0,5.0
1904-01-01 00:20:52.833544991,E4_Acc,2024-06-26 08:12:48.781769991,-12.0,-64.0,5.0
1904-01-01 00:20:52.864794991,E4_Acc,2024-06-26 08:12:48.813019991,-12.0,-64.0,5.0
1904-01-01 00:20:52.896044991,E4_Acc,2024-06-26 08:12:48.844269991,-11.0,-64.0,5.0
1904-01-01 00:20:52.927305005,E4_Acc,2024-06-26 08:12:48.875530005,-11.0,-64.0,4.0
1904-01-01 00:20:52.958555005,E4_Acc,2024-06-26 08:12:48.906780005,-11.0,-63.0,4.0
1904-01-01 00:20:52.989805005,E4_Acc,2024-06-26 08:12:48.938030005,-11.0,-64.0,4.0
1904-01-01 00:20:53.021055005,E4_Acc,2024-06-26 08:12:48.969280005,-11.0,-64.0,5.0
1904-01-01 00:20:53.052305005,E4_Acc,2024-06-26 08:12:49.000530005,-11.0,-64.0,5.0
1904-01-01 00:20:53.083555005,E4_Acc,2024-06-26 08:12:49.031780005,-11.0,-64.0,5.0
1904-01-01 00:20:53.114805005,E4_Acc,2024-06-26 08:12:49.063030005,-11.0,-63.0,5.0
1904-01-01 00:20:53.146065018,E4_Acc,2024-06-26 08:12:49.094290018,-11.0,-63.0,5.0
1904-01-01 00:20:53.177315018,E4_Acc,2024-06-26 08:12:49.125540018,-12.0,-64.0,5.0
1904-01-01 00:20:53.208565018,E4_Acc,2024-06-26 08:12:49.156790018,-12.0,-63.0,5.0
1904-01-01 00:20:53.239815018,E4_Acc,2024-06-26 08:12:49.188040018,-12.0,-64.0,5.0
1904-01-01 00:20:53.271065018,E4_Acc,2024-06-26 08:12:49.219290018,-12.0,-63.0,5.0
1904-01-01 00:20:53.302315017,E4_Acc,2024-06-26 08:12:49.250540017,-13.0,-63.0,6.0
1904-01-01 00:20:53.333575032,E4_Acc,2024-06-26 08:12:49.281800032,-13.0,-63.0,6.0
1904-01-01 00:20:53.364825032,E4_Acc,2024-06-26 08:12:49.313050032,-13.0,-63.0,5.0
1904-01-01 00:20:53.396075032,E4_Acc,2024-06-26 08:12:49.344300032,-13.0,-64.0,6.0
1904-01-01 00:20:53.427325032,E4_Acc,2024-06-26 08:12:49.375550032,-13.0,-63.0,6.0
1904-01-01 00:20:53.458575032,E4_Acc,2024-06-26 08:12:49.406800032,-13.0,-63.0,5.0
1904-01-01 00:20:53.489825032,E4_Acc,2024-06-26 08:12:49.438050032,-13.0,-63.0,5.0
1904-01-01 00:20:53.521075032,E4_Acc,2024-06-26 08:12:49.469300032,-13.0,-63.0,5.0
1904-01-01 00:20:53.552335044,E4_Acc,2024-06-26 08:12:49.500560044,-13.0,-63.0,6.0
1904-01-01 00:20:53.583585044,E4_Acc,2024-06-26 08:12:49.531810044,-13.0,-63.0,6.0
1904-01-01 00:20:53.614835045,E4_Acc,2024-06-26 08:12:49.563060045,-13.0,-63.0,6.0
1904-01-01 00:20:53.646085045,E4_Acc,2024-06-26 08:12:49.594310045,-13.0,-63.0,6.0
1904-01-01 00:20:53.677335045,E4_Acc,2024-06-26 08:12:49.625560045,-13.0,-63.0,6.0
1904-01-01 00:20:53.708585045,E4_Acc,2024-06-26 08:12:49.656810045,-13.0,-63.0,5.0
1904-01-01 00:20:53.739835045,E4_Acc,2024-06-26 08:12:49.688060045,-12.0,-63.0,5.0
1904-01-01 00:20:53.771095059,E4_Acc,2024-06-26 08:12:49.719320059,-12.0,-63.0,6.0
1904-01-01 00:20:53.802345059,E4_Acc,2024-06-26 08:12:49.750570059,-12.0,-63.0,6.0
1904-01-01 00:20:53.833595059,E4_Acc,2024-06-26 08:12:49.781820059,-12.0,-63.0,6.0
1904-01-01 00:20:53.864845059,E4_Acc,2024-06-26 08:12:49.813070059,-12.0,-63.0,6.0
1904-01-01 00:20:53.896095059,E4_Acc,2024-06-26 08:12:49.844320059,-12.0,-63.0,6.0
1904-01-01 00:20:53.927345059,E4_Acc,2024-06-26 08:12:49.875570059,-13.0,-63.0,6.0
1904-01-01 00:20:53.958595059,E4_Acc,2024-06-26 08:12:49.906820059,-12.0,-63.0,6.0
1904-01-01 00:20:53.989855072,E4_Acc,2024-06-26 08:12:49.938080072,-12.0,-63.0,6.0
1904-01-01 00:20:54.021105072,E4_Acc,2024-06-26 08:12:49.969330072,-13.0,-64.0,6.0
1904-01-01 00:20:54.052355072,E4_Acc,2024-06-26 08:12:50.000580072,-13.0,-63.0,6.0
1904-01-01 00:20:54.083605072,E4_Acc,2024-06-26 08:12:50.031830072,-13.0,-63.0,6.0
1904-01-01 00:20:54.114855072,E4_Acc,2024-06-26 08:12:50.063080072,-13.0,-63.0,6.0
1904-01-01 00:20:54.146105072,E4_Acc,2024-06-26 08:12:50.094330072,-13.0,-63.0,6.0
1904-01-01 00:20:54.177355071,E4_Acc,2024-06-26 08:12:50.125580071,-12.0,-63.0,6.0
1904-01-01 00:20:54.208615086,E4_Acc,2024-06-26 08:12:50.156840086,-12.0,-63.0,6.0
1904-01-01 00:20:54.239865086,E4_Acc,2024-06-26 08:12:50.188090086,-12.0,-64.0,6.0
1904-01-01 00:20:54.271115086,E4_Acc,2024-06-26 08:12:50.219340086,-12.0,-63.0,6.0
1904-01-01 00:20:54.302365086,E4_Acc,2024-06-26 08:12:50.250590086,-12.0,-63.0,6.0
1904-01-01 00:20:54.333615086,E4_Acc,2024-06-26 08:12:50.281840086,-12.0,-63.0,6.0
1904-01-01 00:20:54.364865086,E4_Acc,2024-06-26 08:12:50.313090086,-13.0,-63.0,5.0
1904-01-01 00:20:54.396115086,E4_Acc,2024-06-26 08:12:50.344340086,-13.0,-63.0,6.0
1904-01-01 00:20:54.427375100,E4_Acc,2024-06-26 08:12:50.375600100,-13.0,-64.0,6.0
1904-01-01 00:20:54.458625100,E4_Acc,2024-06-26 08:12:50.406850100,-13.0,-64.0,7.0
1904-01-01 00:20:54.489875100,E4_Acc,2024-06-26 08:12:50.438100100,-13.0,-63.0,7.0
1904-01-01 00:20:54.521125100,E4_Acc,2024-06-26 08:12:50.469350100,-13.0,-63.0,5.0
1904-01-01 00:20:54.552375100,E4_Acc,2024-06-26 08:12:50.500600100,-13.0,-63.0,5.0
1904-01-01 00:20:54.583625100,E4_Acc,2024-06-26 08:12:50.531850100,-12.0,-63.0,5.0
1904-01-01 00:20:54.614875100,E4_Acc,2024-06-26 08:12:50.563100100,-12.0,-63.0,5.0
1904-01-01 00:20:54.646135113,E4_Acc,2024-06-26 08:12:50.594360113,-12.0,-63.0,5.0
1904-01-01 00:20:54.677385113,E4_Acc,2024-06-26 08:12:50.625610113,-12.0,-63.0,5.0
1904-01-01 00:20:54.708635113,E4_Acc,2024-06-26 08:12:50.656860113,-11.0,-63.0,6.0
1904-01-01 00:20:54.739885113,E4_Acc,2024-06-26 08:12:50.688110113,-11.0,-63.0,6.0
1904-01-01 00:20:54.771135113,E4_Acc,2024-06-26 08:12:50.719360113,-12.0,-63.0,6.0
1904-01-01 00:20:54.802385113,E4_Acc,2024-06-26 08:12:50.750610113,-13.0,-64.0,6.0
1904-01-01 00:20:54.833635113,E4_Acc,2024-06-26 08:12:50.781860113,-13.0,-64.0,6.0
1904-01-01 00:20:54.864894888,E4_Acc,2024-06-26 08:12:50.813119888,-13.0,-63.0,6.0
1904-01-01 00:20:54.896144888,E4_Acc,2024-06-26 08:12:50.844369888,-14.0,-63.0,6.0
1904-01-01 00:20:54.927394888,E4_Acc,2024-06-26 08:12:50.875619888,-14.0,-63.0,6.0
1904-01-01 00:20:54.958644888,E4_Acc,2024-06-26 08:12:50.906869888,-14.0,-64.0,6.0
1904-01-01 00:20:54.989894888,E4_Acc,2024-06-26 08:12:50.938119888,-13.0,-63.0,6.0
1904-01-01 00:20:55.021144888,E4_Acc,2024-06-26 08:12:50.969369888,-13.0,-64.0,6.0
1904-01-01 00:20:55.052394888,E4_Acc,2024-06-26 08:12:51.000619888,-13.0,-63.0,6.0
1904-01-01 00:20:55.083654902,E4_Acc,2024-06-26 08:12:51.031879902,-13.0,-63.0,6.0
1904-01-01 00:20:55.114904902,E4_Acc,2024-06-26 08:12:51.063129902,-12.0,-63.0,5.0
1904-01-01 00:20:55.146154902,E4_Acc,2024-06-26 08:12:51.094379902,-13.0,-63.0,5.0
1904-01-01 00:20:55.177404901,E4_Acc,2024-06-26 08:12:51.125629901,-13.0,-63.0,5.0
1904-01-01 00:20:55.208654902,E4_Acc,2024-06-26 08:12:51.156879902,-12.0,-63.0,6.0
1904-01-01 00:20:55.239904902,E4_Acc,2024-06-26 08:12:51.188129902,-12.0,-63.0,6.0
1904-01-01 00:20:55.271154902,E4_Acc,2024-06-26 08:12:51.219379902,-13.0,-63.0,6.0
1904-01-01 00:20:55.302414915,E4_Acc,2024-06-26 08:12:51.250639915,-13.0,-63.0,6.0
1904-01-01 00:20:55.333664915,E4_Acc,2024-06-26 08:12:51.281889915,-13.0,-63.0,6.0
1904-01-01 00:20:55.364914915,E4_Acc,2024-06-26 08:12:51.313139915,-13.0,-63.0,6.0
1904-01-01 00:20:55.396164915,E4_Acc,2024-06-26 08:12:51.344389915,-14.0,-63.0,6.0
1904-01-01 00:20:55.427414915,E4_Acc,2024-06-26 08:12:51.375639915,-14.0,-63.0,6.0
1904-01-01 00:20:55.458664915,E4_Acc,2024-06-26 08:12:51.406889915,-14.0,-63.0,6.0
1904-01-01 00:20:55.489914915,E4_Acc,2024-06-26 08:12:51.438139915,-14.0,-64.0,6.0
1904-01-01 00:20:55.521174929,E4_Acc,2024-06-26 08:12:51.469399929,-13.0,-63.0,6.0
1904-01-01 00:20:55.552424929,E4_Acc,2024-06-26 08:12:51.500649929,-13.0,-63.0,6.0
1904-01-01 00:20:55.583674929,E4_Acc,2024-06-26 08:12:51.531899929,-13.0,-63.0,6.0
1904-01-01 00:20:55.614924929,E4_Acc,2024-06-26 08:12:51.563149929,-12.0,-63.0,6.0
1904-01-01 00:20:55.646174929,E4_Acc,2024-06-26 08:12:51.594399929,-12.0,-63.0,6.0
1904-01-01 00:20:55.677424929,E4_Acc,2024-06-26 08:12:51.625649929,-12.0,-63.0,6.0
1904-01-01 00:20:55.708674929,E4_Acc,2024-06-26 08:12:51.656899929,-13.0,-63.0,6.0
1904-01-01 00:20:55.739934943,E4_Acc,2024-06-26 08:12:51.688159943,-12.0,-63.0,6.0
1904-01-01 00:20:55.771184943,E4_Acc,2024-06-26 08:12:51.719409943,-12.0,-63.0,6.0
1904-01-01 00:20:55.802434943,E4_Acc,2024-06-26 08:12:51.750659943,-13.0,-62.0,6.0
1904-01-01 00:20:55.833684943,E4_Acc,2024-06-26 08:12:51.781909943,-13.0,-63.0,6.0
1904-01-01 00:20:55.864934943,E4_Acc,2024-06-26 08:12:51.813159943,-13.0,-63.0,6.0
1904-01-01 00:20:55.896184943,E4_Acc,2024-06-26 08:12:51.844409943,-13.0,-63.0,6.0
1904-01-01 00:20:55.927434943,E4_Acc,2024-06-26 08:12:51.875659943,-14.0,-63.0,7.0
1904-01-01 00:20:55.958694956,E4_Acc,2024-06-26 08:12:51.906919956,-14.0,-63.0,7.0
1904-01-01 00:20:55.989944956,E4_Acc,2024-06-26 08:12:51.938169956,-14.0,-63.0,7.0
1904-01-01 00:20:56.021194956,E4_Acc,2024-06-26 08:12:51.969419956,-14.0,-63.0,6.0
1904-01-01 00:20:56.052444956,E4_Acc,2024-06-26 08:12:52.000669956,-14.0,-63.0,6.0
1904-01-01 00:20:56.083694956,E4_Acc,2024-06-26 08:12:52.031919956,-14.0,-63.0,7.0
1904-01-01 00:20:56.114944956,E4_Acc,2024-06-26 08:12:52.063169956,-13.0,-63.0,7.0
1904-01-01 00:20:56.146204970,E4_Acc,2024-06-26 08:12:52.094429970,-13.0,-63.0,7.0
1904-01-01 00:20:56.177454970,E4_Acc,2024-06-26 08:12:52.125679970,-13.0,-63.0,6.0
1904-01-01 00:20:56.208704970,E4_Acc,2024-06-26 08:12:52.156929970,-13.0,-63.0,6.0
1904-01-01 00:20:56.239954970,E4_Acc,2024-06-26 08:12:52.188179970,-12.0,-63.0,6.0
1904-01-01 00:20:56.271204970,E4_Acc,2024-06-26 08:12:52.219429970,-13.0,-63.0,6.0
1904-01-01 00:20:56.302454969,E4_Acc,2024-06-26 08:12:52.250679969,-12.0,-63.0,6.0
1904-01-01 00:20:56.333704970,E4_Acc,2024-06-26 08:12:52.281929970,-13.0,-63.0,6.0
1904-01-01 00:20:56.364964983,E4_Acc,2024-06-26 08:12:52.313189983,-13.0,-63.0,6.0
1904-01-01 00:20:56.396214983,E4_Acc,2024-06-26 08:12:52.344439983,-13.0,-63.0,7.0
1904-01-01 00:20:56.427464983,E4_Acc,2024-06-26 08:12:52.375689983,-13.0,-63.0,6.0
1904-01-01 00:20:56.458714983,E4_Acc,2024-06-26 08:12:52.406939983,-13.0,-63.0,6.0
1904-01-01 00:20:56.489964983,E4_Acc,2024-06-26 08:12:52.438189983,-13.0,-63.0,6.0
1904-01-01 00:20:56.521214983,E4_Acc,2024-06-26 08:12:52.469439983,-13.0,-63.0,6.0
1904-01-01 00:20:56.552464983,E4_Acc,2024-06-26 08:12:52.500689983,-13.0,-63.0,6.0
1904-01-01 00:20:56.583724997,E4_Acc,2024-06-26 08:12:52.531949997,-13.0,-63.0,6.0
1904-01-01 00:20:56.614974997,E4_Acc,2024-06-26 08:12:52.563199997,-13.0,-63.0,6.0
1904-01-01 00:20:56.646224997,E4_Acc,2024-06-26 08:12:52.594449997,-13.0,-63.0,6.0
1904-01-01 00:20:56.677474997,E4_Acc,2024-06-26 08:12:52.625699997,-13.0,-63.0,6.0
1904-01-01 00:20:56.708724997,E4_Acc,2024-06-26 08:12:52.656949997,-13.0,-63.0,6.0
1904-01-01 00:20:56.739974997,E4_Acc,2024-06-26 08:12:52.688199997,-13.0,-63.0,6.0
1904-01-01 00:20:56.771224997,E4_Acc,2024-06-26 08:12:52.719449997,-13.0,-63.0,6.0
1904-01-01 00:20:56.802485011,E4_Acc,2024-06-26 08:12:52.750710011,-13.0,-63.0,6.0
1904-01-01 00:20:56.833735011,E4_Acc,2024-06-26 08:12:52.781960011,-13.0,-63.0,6.0
1904-01-01 00:20:56.864985011,E4_Acc,2024-06-26 08:12:52.813210011,-13.0,-63.0,6.0
1904-01-01 00:20:56.896235011,E4_Acc,2024-06-26 08:12:52.844460011,-13.0,-63.0,6.0
1904-01-01 00:20:56.927485011,E4_Acc,2024-06-26 08:12:52.875710011,-13.0,-63.0,6.0
1904-01-01 00:20:56.958735011,E4_Acc,2024-06-26 08:12:52.906960011,-13.0,-63.0,6.0
1904-01-01 00:20:56.989985011,E4_Acc,2024-06-26 08:12:52.938210011,-13.0,-63.0,6.0
1904-01-01 00:20:57.021245024,E4_Acc,2024-06-26 08:12:52.969470024,-13.0,-63.0,6.0
1904-01-01 00:20:57.052495024,E4_Acc,2024-06-26 08:12:53.000720024,-13.0,-63.0,6.0
1904-01-01 00:20:57.083745024,E4_Acc,2024-06-26 08:12:53.031970024,-13.0,-63.0,6.0
1904-01-01 00:20:57.114995024,E4_Acc,2024-06-26 08:12:53.063220024,-13.0,-63.0,6.0
1904-01-01 00:20:57.146245024,E4_Acc,2024-06-26 08:12:53.094470024,-13.0,-63.0,6.0
1904-01-01 00:20:57.177495024,E4_Acc,2024-06-26 08:12:53.125720024,-13.0,-63.0,6.0
1904-01-01 00:20:57.208745024,E4_Acc,2024-06-26 08:12:53.156970024,-13.0,-63.0,6.0
1904-01-01 00:20:57.240005038,E4_Acc,2024-06-26 08:12:53.188230038,-13.0,-63.0,6.0
1904-01-01 00:20:57.271255038,E4_Acc,2024-06-26 08:12:53.219480038,-13.0,-63.0,6.0
1904-01-01 00:20:57.302505038,E4_Acc,2024-06-26 08:12:53.250730038,-13.0,-63.0,6.0
1904-01-01 00:20:57.333755038,E4_Acc,2024-06-26 08:12:53.281980038,-13.0,-63.0,6.0
1904-01-01 00:20:57.365005038,E4_Acc,2024-06-26 08:12:53.313230038,-13.0,-63.0,6.0
1904-01-01 00:20:57.396255038,E4_Acc,2024-06-26 08:12:53.344480038,-13.0,-63.0,6.0
1904-01-01 00:20:57.427505038,E4_Acc,2024-06-26 08:12:53.375730038,-13.0,-63.0,6.0
1904-01-01 00:20:57.458765051,E4_Acc,2024-06-26 08:12:53.406990051,-13.0,-63.0,6.0
1904-01-01 00:20:57.490015051,E4_Acc,2024-06-26 08:12:53.438240051,-13.0,-63.0,6.0
1904-01-01 00:20:57.521265051,E4_Acc,2024-06-26 08:12:53.469490051,-13.0,-63.0,6.0
1904-01-01 00:20:57.552515050,E4_Acc,2024-06-26 08:12:53.500740050,-13.0,-63.0,6.0
1904-01-01 00:20:57.583765050,E4_Acc,2024-06-26 08:12:53.531990050,-13.0,-63.0,6.0
1904-01-01 00:20:57.615015051,E4_Acc,2024-06-26 08:12:53.563240051,-13.0,-63.0,6.0
1904-01-01 00:20:57.646265051,E4_Acc,2024-06-26 08:12:53.594490051,-13.0,-63.0,6.0
1904-01-01 00:20:57.677525065,E4_Acc,2024-06-26 08:12:53.625750065,-13.0,-63.0,6.0
1904-01-01 00:20:57.708775065,E4_Acc,2024-06-26 08:12:53.657000065,-13.0,-63.0,6.0
1904-01-01 00:20:57.740025065,E4_Acc,2024-06-26 08:12:53.688250065,-14.0,-63.0,6.0
1904-01-01 00:20:57.771275065,E4_Acc,2024-06-26 08:12:53.719500065,-14.0,-63.0,6.0
1904-01-01 00:20:57.802525065,E4_Acc,2024-06-26 08:12:53.750750065,-14.0,-63.0,6.0
1904-01-01 00:20:57.833775065,E4_Acc,2024-06-26 08:12:53.782000065,-14.0,-63.0,6.0
1904-01-01 00:20:57.865025065,E4_Acc,2024-06-26 08:12:53.813250065,-14.0,-63.0,6.0
1904-01-01 00:20:57.896285078,E4_Acc,2024-06-26 08:12:53.844510078,-14.0,-64.0,6.0
1904-01-01 00:20:57.927535078,E4_Acc,2024-06-26 08:12:53.875760078,-13.0,-63.0,6.0
1904-01-01 00:20:57.958785078,E4_Acc,2024-06-26 08:12:53.907010078,-13.0,-63.0,6.0
1904-01-01 00:20:57.990035078,E4_Acc,2024-06-26 08:12:53.938260078,-13.0,-63.0,6.0
1904-01-01 00:20:58.021285078,E4_Acc,2024-06-26 08:12:53.969510078,-13.0,-63.0,6.0
1904-01-01 00:20:58.052535078,E4_Acc,2024-06-26 08:12:54.000760078,-13.0,-63.0,6.0
1904-01-01 00:20:58.083785077,E4_Acc,2024-06-26 08:12:54.032010077,-13.0,-63.0,6.0
1904-01-01 00:20:58.115045092,E4_Acc,2024-06-26 08:12:54.063270092,-13.0,-63.0,6.0
1904-01-01 00:20:58.146295092,E4_Acc,2024-06-26 08:12:54.094520092,-13.0,-63.0,6.0
1904-01-01 00:20:58.177545092,E4_Acc,2024-06-26 08:12:54.125770092,-13.0,-63.0,6.0
1904-01-01 00:20:58.208795092,E4_Acc,2024-06-26 08:12:54.157020092,-14.0,-63.0,6.0
1904-01-01 00:20:58.240045092,E4_Acc,2024-06-26 08:12:54.188270092,-14.0,-63.0,6.0
1904-01-01 00:20:58.271295092,E4_Acc,2024-06-26 08:12:54.219520092,-14.0,-63.0,6.0
1904-01-01 00:20:58.302555106,E4_Acc,2024-06-26 08:12:54.250780106,-14.0,-63.0,6.0
1904-01-01 00:20:58.333805106,E4_Acc,2024-06-26 08:12:54.282030106,-14.0,-63.0,6.0
1904-01-01 00:20:58.365055106,E4_Acc,2024-06-26 08:12:54.313280106,-13.0,-63.0,6.0
1904-01-01 00:20:58.396305106,E4_Acc,2024-06-26 08:12:54.344530106,-14.0,-63.0,6.0
1904-01-01 00:20:58.427555106,E4_Acc,2024-06-26 08:12:54.375780106,-13.0,-63.0,6.0
1904-01-01 00:20:58.458805106,E4_Acc,2024-06-26 08:12:54.407030106,-13.0,-63.0,6.0
1904-01-01 00:20:58.490055106,E4_Acc,2024-06-26 08:12:54.438280106,-13.0,-63.0,6.0
1904-01-01 00:20:58.521315119,E4_Acc,2024-06-26 08:12:54.469540119,-14.0,-63.0,6.0
1904-01-01 00:20:58.552565119,E4_Acc,2024-06-26 08:12:54.500790119,-14.0,-63.0,6.0
1904-01-01 00:20:58.583815119,E4_Acc,2024-06-26 08:12:54.532040119,-14.0,-63.0,6.0
1904-01-01 00:20:58.615065119,E4_Acc,2024-06-26 08:12:54.563290119,-14.0,-63.0,6.0
1904-01-01 00:20:58.646315119,E4_Acc,2024-06-26 08:12:54.594540119,-14.0,-63.0,6.0
1904-01-01 00:20:58.677565119,E4_Acc,2024-06-26 08:12:54.625790119,-14.0,-63.0,6.0
1904-01-01 00:20:58.708815119,E4_Acc,2024-06-26 08:12:54.657040119,-13.0,-63.0,6.0
1904-01-01 00:20:58.740074894,E4_Acc,2024-06-26 08:12:54.688299894,-13.0,-63.0,6.0
1904-01-01 00:20:58.771324894,E4_Acc,2024-06-26 08:12:54.719549894,-13.0,-63.0,6.0
1904-01-01 00:20:58.802574894,E4_Acc,2024-06-26 08:12:54.750799894,-13.0,-63.0,6.0
1904-01-01 00:20:58.833824894,E4_Acc,2024-06-26 08:12:54.782049894,-13.0,-63.0,6.0
1904-01-01 00:20:58.865074894,E4_Acc,2024-06-26 08:12:54.813299894,-13.0,-63.0,6.0
1904-01-01 00:20:58.896324894,E4_Acc,2024-06-26 08:12:54.844549894,-13.0,-63.0,6.0
1904-01-01 00:20:58.927574894,E4_Acc,2024-06-26 08:12:54.875799894,-13.0,-63.0,6.0
1904-01-01 00:20:58.958834908,E4_Acc,2024-06-26 08:12:54.907059908,-13.0,-63.0,6.0
1904-01-01 00:20:58.990084908,E4_Acc,2024-06-26 08:12:54.938309908,-13.0,-63.0,6.0
1904-01-01 00:20:59.021334908,E4_Acc,2024-06-26 08:12:54.969559908,-13.0,-63.0,6.0
1904-01-01 00:20:59.052584908,E4_Acc,2024-06-26 08:12:55.000809908,-14.0,-63.0,6.0
1904-01-01 00:20:59.083834907,E4_Acc,2024-06-26 08:12:55.032059907,-14.0,-63.0,7.0
1904-01-01 00:20:59.115084908,E4_Acc,2024-06-26 08:12:55.063309908,-14.0,-63.0,7.0
1904-01-01 00:20:59.146334908,E4_Acc,2024-06-26 08:12:55.094559908,-14.0,-63.0,6.0
1904-01-01 00:20:59.177594921,E4_Acc,2024-06-26 08:12:55.125819921,-14.0,-63.0,6.0
1904-01-01 00:20:59.208844921,E4_Acc,2024-06-26 08:12:55.157069921,-14.0,-63.0,6.0
1904-01-01 00:20:59.240094921,E4_Acc,2024-06-26 08:12:55.188319921,-13.0,-63.0,6.0
1904-01-01 00:20:59.271344921,E4_Acc,2024-06-26 08:12:55.219569921,-13.0,-63.0,6.0
1904-01-01 00:20:59.302594921,E4_Acc,2024-06-26 08:12:55.250819921,-13.0,-63.0,6.0
1904-01-01 00:20:59.333844921,E4_Acc,2024-06-26 08:12:55.282069921,-13.0,-63.0,6.0
1904-01-01 00:20:59.365094921,E4_Acc,2024-06-26 08:12:55.313319921,-13.0,-63.0,6.0
1904-01-01 00:20:59.396354935,E4_Acc,2024-06-26 08:12:55.344579935,-13.0,-63.0,6.0
1904-01-01 00:20:59.427604935,E4_Acc,2024-06-26 08:12:55.375829935,-13.0,-63.0,6.0
1904-01-01 00:20:59.458854935,E4_Acc,2024-06-26 08:12:55.407079935,-13.0,-63.0,6.0
1904-01-01 00:20:59.490104935,E4_Acc,2024-06-26 08:12:55.438329935,-13.0,-63.0,6.0
1904-01-01 00:20:59.521354935,E4_Acc,2024-06-26 08:12:55.469579935,-13.0,-63.0,6.0
1904-01-01 00:20:59.552604934,E4_Acc,2024-06-26 08:12:55.500829934,-14.0,-63.0,6.0
1904-01-01 00:20:59.583854934,E4_Acc,2024-06-26 08:12:55.532079934,-13.0,-63.0,6.0
1904-01-01 00:20:59.615114949,E4_Acc,2024-06-26 08:12:55.563339949,-13.0,-63.0,6.0
1904-01-01 00:20:59.646364949,E4_Acc,2024-06-26 08:12:55.594589949,-13.0,-63.0,6.0
1904-01-01 00:20:59.677614949,E4_Acc,2024-06-26 08:12:55.625839949,-13.0,-63.0,6.0
1904-01-01 00:20:59.708864949,E4_Acc,2024-06-26 08:12:55.657089949,-13.0,-63.0,6.0
1904-01-01 00:20:59.740114949,E4_Acc,2024-06-26 08:12:55.688339949,-13.0,-63.0,6.0
1904-01-01 00:20:59.771364949,E4_Acc,2024-06-26 08:12:55.719589949,-13.0,-63.0,6.0
1904-01-01 00:20:59.802614949,E4_Acc,2024-06-26 08:12:55.750839949,-13.0,-63.0,6.0
1904-01-01 00:20:59.833874962,E4_Acc,2024-06-26 08:12:55.782099962,-13.0,-63.0,6.0
1904-01-01 00:20:59.865124962,E4_Acc,2024-06-26 08:12:55.813349962,-13.0,-63.0,6.0
1904-01-01 00:20:59.896374962,E4_Acc,2024-06-26 08:12:55.844599962,-13.0,-63.0,6.0
1904-01-01 00:20:59.927624962,E4_Acc,2024-06-26 08:12:55.875849962,-14.0,-63.0,6.0
1904-01-01 00:20:59.958874962,E4_Acc,2024-06-26 08:12:55.907099962,-14.0,-63.0,6.0
1904-01-01 00:20:59.990124962,E4_Acc,2024-06-26 08:12:55.938349962,-14.0,-63.0,6.0
1904-01-01 00:21:00.021374962,E4_Acc,2024-06-26 08:12:55.969599962,-14.0,-63.0,6.0
1904-01-01 00:21:00.052634976,E4_Acc,2024-06-26 08:12:56.000859976,-14.0,-63.0,6.0
1904-01-01 00:21:00.083884976,E4_Acc,2024-06-26 08:12:56.032109976,-14.0,-63.0,6.0
1904-01-01 00:21:00.115134976,E4_Acc,2024-06-26 08:12:56.063359976,-14.0,-63.0,6.0
1904-01-01 00:21:00.146384976,E4_Acc,2024-06-26 08:12:56.094609976,-14.0,-63.0,6.0
1904-01-01 00:21:00.177634976,E4_Acc,2024-06-26 08:12:56.125859976,-13.0,-63.0,6.0
1904-01-01 00:21:00.208884976,E4_Acc,2024-06-26 08:12:56.157109976,-13.0,-63.0,6.0
1904-01-01 00:21:00.240134976,E4_Acc,2024-06-26 08:12:56.188359976,-13.0,-63.0,6.0
1904-01-01 00:21:00.271394989,E4_Acc,2024-06-26 08:12:56.219619989,-13.0,-63.0,6.0
1904-01-01 00:21:00.302644989,E4_Acc,2024-06-26 08:12:56.250869989,-13.0,-63.0,6.0
1904-01-01 00:21:00.333894989,E4_Acc,2024-06-26 08:12:56.282119989,-13.0,-63.0,6.0
1904-01-01 00:21:00.365144989,E4_Acc,2024-06-26 08:12:56.313369989,-13.0,-63.0,6.0
1904-01-01 00:21:00.396394989,E4_Acc,2024-06-26 08:12:56.344619989,-13.0,-63.0,6.0
1904-01-01 00:21:00.427644989,E4_Acc,2024-06-26 08:12:56.375869989,-13.0,-63.0,6.0
1904-01-01 00:21:00.458894989,E4_Acc,2024-06-26 08:12:56.407119989,-13.0,-63.0,6.0
1904-01-01 00:21:00.490155003,E4_Acc,2024-06-26 08:12:56.438380003,-13.0,-63.0,6.0
1904-01-01 00:21:00.521405003,E4_Acc,2024-06-26 08:12:56.469630003,-13.0,-63.0,6.0
1904-01-01 00:21:00.552655003,E4_Acc,2024-06-26 08:12:56.500880003,-13.0,-63.0,6.0
1904-01-01 00:21:00.583905003,E4_Acc,2024-06-26 08:12:56.532130003,-14.0,-63.0,6.0
1904-01-01 00:21:00.615155003,E4_Acc,2024-06-26 08:12:56.563380003,-14.0,-63.0,6.0
1904-01-01 00:21:00.646405003,E4_Acc,2024-06-26 08:12:56.594630003,-13.0,-63.0,6.0
1904-01-01 00:21:00.677665017,E4_Acc,2024-06-26 08:12:56.625890017,-13.0,-63.0,6.0
1904-01-01 00:21:00.708915017,E4_Acc,2024-06-26 08:12:56.657140017,-13.0,-63.0,5.0
1904-01-01 00:21:00.740165017,E4_Acc,2024-06-26 08:12:56.688390017,-13.0,-63.0,5.0
1904-01-01 00:21:00.771415017,E4_Acc,2024-06-26 08:12:56.719640017,-13.0,-63.0,5.0
1904-01-01 00:21:00.802665017,E4_Acc,2024-06-26 08:12:56.750890017,-13.0,-63.0,6.0
1904-01-01 00:21:00.833915017,E4_Acc,2024-06-26 08:12:56.782140017,-13.0,-63.0,6.0
1904-01-01 00:21:00.865165017,E4_Acc,2024-06-26 08:12:56.813390017,-13.0,-63.0,5.0
1904-01-01 00:21:00.896425030,E4_Acc,2024-06-26 08:12:56.844650030,-13.0,-63.0,5.0
1904-01-01 00:21:00.927675030,E4_Acc,2024-06-26 08:12:56.875900030,-13.0,-63.0,5.0
1904-01-01 00:21:00.958925030,E4_Acc,2024-06-26 08:12:56.907150030,-13.0,-64.0,6.0
1904-01-01 00:21:00.990175030,E4_Acc,2024-06-26 08:12:56.938400030,-13.0,-64.0,6.0
1904-01-01 00:21:01.021425030,E4_Acc,2024-06-26 08:12:56.969650030,-13.0,-63.0,6.0
1904-01-01 00:21:01.052675030,E4_Acc,2024-06-26 08:12:57.000900030,-13.0,-63.0,6.0
1904-01-01 00:21:01.083925030,E4_Acc,2024-06-26 08:12:57.032150030,-13.0,-63.0,6.0
1904-01-01 00:21:01.115185044,E4_Acc,2024-06-26 08:12:57.063410044,-13.0,-63.0,5.0
1904-01-01 00:21:01.146435044,E4_Acc,2024-06-26 08:12:57.094660044,-13.0,-63.0,6.0
1904-01-01 00:21:01.177685044,E4_Acc,2024-06-26 08:12:57.125910044,-13.0,-64.0,5.0
1904-01-01 00:21:01.208935044,E4_Acc,2024-06-26 08:12:57.157160044,-13.0,-64.0,5.0
1904-01-01 00:21:01.240185044,E4_Acc,2024-06-26 08:12:57.188410044,-13.0,-63.0,5.0
1904-01-01 00:21:01.271435044,E4_Acc,2024-06-26 08:12:57.219660044,-13.0,-63.0,5.0
1904-01-01 00:21:01.302685044,E4_Acc,2024-06-26 08:12:57.250910044,-13.0,-63.0,5.0
1904-01-01 00:21:01.333945057,E4_Acc,2024-06-26 08:12:57.282170057,-13.0,-63.0,5.0
1904-01-01 00:21:01.365195057,E4_Acc,2024-06-26 08:12:57.313420057,-13.0,-63.0,5.0
1904-01-01 00:21:01.396445057,E4_Acc,2024-06-26 08:12:57.344670057,-13.0,-64.0,6.0
1904-01-01 00:21:01.427695057,E4_Acc,2024-06-26 08:12:57.375920057,-13.0,-63.0,6.0
1904-01-01 00:21:01.458945057,E4_Acc,2024-06-26 08:12:57.407170057,-13.0,-63.0,6.0
1904-01-01 00:21:01.490195057,E4_Acc,2024-06-26 08:12:57.438420057,-13.0,-63.0,5.0
1904-01-01 00:21:01.521445057,E4_Acc,2024-06-26 08:12:57.469670057,-13.0,-63.0,6.0
1904-01-01 00:21:01.552705071,E4_Acc,2024-06-26 08:12:57.500930071,-13.0,-63.0,5.0
1904-01-01 00:21:01.583955071,E4_Acc,2024-06-26 08:12:57.532180071,-13.0,-63.0,5.0
1904-01-01 00:21:01.615205071,E4_Acc,2024-06-26 08:12:57.563430071,-13.0,-63.0,5.0
1904-01-01 00:21:01.646455071,E4_Acc,2024-06-26 08:12:57.594680071,-13.0,-63.0,5.0
1904-01-01 00:21:01.677705071,E4_Acc,2024-06-26 08:12:57.625930071,-13.0,-64.0,5.0
1904-01-01 00:21:01.708955071,E4_Acc,2024-06-26 08:12:57.657180071,-13.0,-64.0,6.0
1904-01-01 00:21:01.740205071,E4_Acc,2024-06-26 08:12:57.688430071,-13.0,-63.0,6.0
1904-01-01 00:21:01.771465084,E4_Acc,2024-06-26 08:12:57.719690084,-13.0,-63.0,6.0
1904-01-01 00:21:01.802715084,E4_Acc,2024-06-26 08:12:57.750940084,-13.0,-63.0,6.0
1904-01-01 00:21:01.833965084,E4_Acc,2024-06-26 08:12:57.782190084,-13.0,-63.0,6.0
1904-01-01 00:21:01.865215084,E4_Acc,2024-06-26 08:12:57.813440084,-14.0,-63.0,6.0
1904-01-01 00:21:01.896465084,E4_Acc,2024-06-26 08:12:57.844690084,-14.0,-63.0,6.0
1904-01-01 00:21:01.927715084,E4_Acc,2024-06-26 08:12:57.875940084,-14.0,-63.0,6.0
1904-01-01 00:21:01.958965084,E4_Acc,2024-06-26 08:12:57.907190084,-13.0,-63.0,5.0
1904-01-01 00:21:01.990225098,E4_Acc,2024-06-26 08:12:57.938450098,-13.0,-63.0,5.0
1904-01-01 00:21:02.021475098,E4_Acc,2024-06-26 08:12:57.969700098,-13.0,-63.0,5.0
1904-01-01 00:21:02.052725098,E4_Acc,2024-06-26 08:12:58.000950098,-13.0,-63.0,5.0
1904-01-01 00:21:02.083975098,E4_Acc,2024-06-26 08:12:58.032200098,-12.0,-64.0,5.0
1904-01-01 00:21:02.115225098,E4_Acc,2024-06-26 08:12:58.063450098,-12.0,-63.0,6.0
1904-01-01 00:21:02.146475098,E4_Acc,2024-06-26 08:12:58.094700098,-12.0,-63.0,6.0
1904-01-01 00:21:02.177725098,E4_Acc,2024-06-26 08:12:58.125950098,-12.0,-63.0,6.0
1904-01-01 00:21:02.208985112,E4_Acc,2024-06-26 08:12:58.157210112,-12.0,-63.0,6.0
1904-01-01 00:21:02.240235112,E4_Acc,2024-06-26 08:12:58.188460112,-13.0,-64.0,6.0
1904-01-01 00:21:02.271485112,E4_Acc,2024-06-26 08:12:58.219710112,-13.0,-63.0,6.0
1904-01-01 00:21:02.302735112,E4_Acc,2024-06-26 08:12:58.250960112,-13.0,-63.0,5.0
1904-01-01 00:21:02.333985112,E4_Acc,2024-06-26 08:12:58.282210112,-13.0,-63.0,6.0
1904-01-01 00:21:02.365235112,E4_Acc,2024-06-26 08:12:58.313460112,-13.0,-63.0,6.0
1904-01-01 00:21:02.396485112,E4_Acc,2024-06-26 08:12:58.344710112,-13.0,-63.0,6.0
1904-01-01 00:21:02.427744887,E4_Acc,2024-06-26 08:12:58.375969887,-13.0,-64.0,6.0
1904-01-01 00:21:02.458994887,E4_Acc,2024-06-26 08:12:58.407219887,-13.0,-63.0,6.0
1904-01-01 00:21:02.490244887,E4_Acc,2024-06-26 08:12:58.438469887,-12.0,-63.0,6.0
1904-01-01 00:21:02.521494887,E4_Acc,2024-06-26 08:12:58.469719887,-12.0,-63.0,6.0
1904-01-01 00:21:02.552744887,E4_Acc,2024-06-26 08:12:58.500969887,-12.0,-63.0,5.0
1904-01-01 00:21:02.583994887,E4_Acc,2024-06-26 08:12:58.532219887,-12.0,-63.0,5.0
1904-01-01 00:21:02.615244887,E4_Acc,2024-06-26 08:12:58.563469887,-12.0,-63.0,5.0
1904-01-01 00:21:02.646504900,E4_Acc,2024-06-26 08:12:58.594729900,-12.0,-63.0,5.0
1904-01-01 00:21:02.677754900,E4_Acc,2024-06-26 08:12:58.625979900,-12.0,-63.0,5.0
1904-01-01 00:21:02.709004900,E4_Acc,2024-06-26 08:12:58.657229900,-12.0,-63.0,5.0
1904-01-01 00:21:02.740254900,E4_Acc,2024-06-26 08:12:58.688479900,-12.0,-63.0,5.0
1904-01-01 00:21:02.771504900,E4_Acc,2024-06-26 08:12:58.719729900,-13.0,-64.0,5.0
1904-01-01 00:21:02.802754900,E4_Acc,2024-06-26 08:12:58.750979900,-13.0,-64.0,5.0
1904-01-01 00:21:02.834004900,E4_Acc,2024-06-26 08:12:58.782229900,-13.0,-63.0,6.0
1904-01-01 00:21:02.865264914,E4_Acc,2024-06-26 08:12:58.813489914,-13.0,-63.0,5.0
1904-01-01 00:21:02.896514914,E4_Acc,2024-06-26 08:12:58.844739914,-13.0,-63.0,5.0
1904-01-01 00:21:02.927764914,E4_Acc,2024-06-26 08:12:58.875989914,-13.0,-63.0,5.0
1904-01-01 00:21:02.959014914,E4_Acc,2024-06-26 08:12:58.907239914,-12.0,-63.0,5.0
1904-01-01 00:21:02.990264914,E4_Acc,2024-06-26 08:12:58.938489914,-12.0,-64.0,5.0
1904-01-01 00:21:03.021514914,E4_Acc,2024-06-26 08:12:58.969739914,-12.0,-64.0,5.0
1904-01-01 00:21:03.052764913,E4_Acc,2024-06-26 08:12:59.000989913,-12.0,-64.0,5.0
1904-01-01 00:21:03.084024927,E4_Acc,2024-06-26 08:12:59.032249927,-12.0,-64.0,5.0
1904-01-01 00:21:03.115274928,E4_Acc,2024-06-26 08:12:59.063499928,-13.0,-63.0,5.0
1904-01-01 00:21:03.146524928,E4_Acc,2024-06-26 08:12:59.094749928,-13.0,-63.0,5.0
1904-01-01 00:21:03.177774928,E4_Acc,2024-06-26 08:12:59.125999928,-13.0,-63.0,5.0
1904-01-01 00:21:03.209024928,E4_Acc,2024-06-26 08:12:59.157249928,-13.0,-63.0,5.0
1904-01-01 00:21:03.240274928,E4_Acc,2024-06-26 08:12:59.188499928,-13.0,-63.0,5.0
1904-01-01 00:21:03.271534941,E4_Acc,2024-06-26 08:12:59.219759941,-13.0,-63.0,5.0
1904-01-01 00:21:03.302784941,E4_Acc,2024-06-26 08:12:59.251009941,-13.0,-63.0,5.0
1904-01-01 00:21:03.334034941,E4_Acc,2024-06-26 08:12:59.282259941,-13.0,-63.0,5.0
1904-01-01 00:21:03.365284941,E4_Acc,2024-06-26 08:12:59.313509941,-12.0,-63.0,5.0
1904-01-01 00:21:03.396534941,E4_Acc,2024-06-26 08:12:59.344759941,-12.0,-63.0,5.0
1904-01-01 00:21:03.427784941,E4_Acc,2024-06-26 08:12:59.376009941,-12.0,-63.0,5.0
1904-01-01 00:21:03.459034941,E4_Acc,2024-06-26 08:12:59.407259941,-12.0,-63.0,5.0
1904-01-01 00:21:03.490294955,E4_Acc,2024-06-26 08:12:59.438519955,-13.0,-63.0,5.0
1904-01-01 00:21:03.521544955,E4_Acc,2024-06-26 08:12:59.469769955,-13.0,-63.0,5.0
1904-01-01 00:21:03.552794954,E4_Acc,2024-06-26 08:12:59.501019954,-13.0,-64.0,5.0
1904-01-01 00:21:03.584044954,E4_Acc,2024-06-26 08:12:59.532269954,-13.0,-63.0,5.0
1904-01-01 00:21:03.615294955,E4_Acc,2024-06-26 08:12:59.563519955,-13.0,-63.0,5.0
1904-01-01 00:21:03.646544955,E4_Acc,2024-06-26 08:12:59.594769955,-13.0,-63.0,5.0
1904-01-01 00:21:03.677794955,E4_Acc,2024-06-26 08:12:59.626019955,-13.0,-63.0,5.0
1904-01-01 00:21:03.709054968,E4_Acc,2024-06-26 08:12:59.657279968,-12.0,-63.0,5.0
1904-01-01 00:21:03.740304968,E4_Acc,2024-06-26 08:12:59.688529968,-13.0,-63.0,5.0
1904-01-01 00:21:03.771554968,E4_Acc,2024-06-26 08:12:59.719779968,-13.0,-63.0,5.0
1904-01-01 00:21:03.802804968,E4_Acc,2024-06-26 08:12:59.751029968,-13.0,-64.0,5.0
1904-01-01 00:21:03.834054968,E4_Acc,2024-06-26 08:12:59.782279968,-13.0,-63.0,6.0
1904-01-01 00:21:03.865304968,E4_Acc,2024-06-26 08:12:59.813529968,-13.0,-63.0,6.0
1904-01-01 00:21:03.896554968,E4_Acc,2024-06-26 08:12:59.844779968,-13.0,-63.0,6.0
1904-01-01 00:21:03.927814982,E4_Acc,2024-06-26 08:12:59.876039982,-13.0,-64.0,5.0
1904-01-01 00:21:03.959064982,E4_Acc,2024-06-26 08:12:59.907289982,-13.0,-63.0,5.0
1904-01-01 00:21:03.990314982,E4_Acc,2024-06-26 08:12:59.938539982,-13.0,-63.0,5.0
1904-01-01 00:21:04.021564982,E4_Acc,2024-06-26 08:12:59.969789982,-13.0,-63.0,5.0
1904-01-01 00:21:04.052814982,E4_Acc,2024-06-26 08:13:00.001039982,-13.0,-63.0,5.0
1904-01-01 00:21:04.084064982,E4_Acc,2024-06-26 08:13:00.032289982,-12.0,-63.0,6.0
1904-01-01 00:21:04.115314981,E4_Acc,2024-06-26 08:13:00.063539981,-13.0,-63.0,5.0
1904-01-01 00:21:04.146574995,E4_Acc,2024-06-26 08:13:00.094799995,-13.0,-63.0,5.0
1904-01-01 00:21:04.177824995,E4_Acc,2024-06-26 08:13:00.126049995,-13.0,-63.0,5.0
1904-01-01 00:21:04.209074995,E4_Acc,2024-06-26 08:13:00.157299995,-12.0,-63.0,5.0
1904-01-01 00:21:04.240324995,E4_Acc,2024-06-26 08:13:00.188549995,-13.0,-63.0,5.0
1904-01-01 00:21:04.271574995,E4_Acc,2024-06-26 08:13:00.219799995,-13.0,-63.0,5.0
1904-01-01 00:21:04.302824995,E4_Acc,2024-06-26 08:13:00.251049995,-12.0,-63.0,5.0
1904-01-01 00:21:04.334074995,E4_Acc,2024-06-26 08:13:00.282299995,-13.0,-63.0,5.0
1904-01-01 00:21:04.365335009,E4_Acc,2024-06-26 08:13:00.313560009,-13.0,-63.0,6.0
1904-01-01 00:21:04.396585009,E4_Acc,2024-06-26 08:13:00.344810009,-13.0,-63.0,6.0
1904-01-01 00:21:04.427835009,E4_Acc,2024-06-26 08:13:00.376060009,-13.0,-63.0,6.0
1904-01-01 00:21:04.459085009,E4_Acc,2024-06-26 08:13:00.407310009,-13.0,-63.0,6.0
1904-01-01 00:21:04.490335009,E4_Acc,2024-06-26 08:13:00.438560009,-13.0,-63.0,5.0
1904-01-01 00:21:04.521585009,E4_Acc,2024-06-26 08:13:00.469810009,-14.0,-63.0,5.0
1904-01-01 00:21:04.552835009,E4_Acc,2024-06-26 08:13:00.501060009,-13.0,-63.0,6.0
1904-01-01 00:21:04.584095023,E4_Acc,2024-06-26 08:13:00.532320023,-13.0,-63.0,5.0
1904-01-01 00:21:04.615345023,E4_Acc,2024-06-26 08:13:00.563570023,-13.0,-63.0,6.0
1904-01-01 00:21:04.646595023,E4_Acc,2024-06-26 08:13:00.594820023,-13.0,-63.0,6.0
1904-01-01 00:21:04.677845023,E4_Acc,2024-06-26 08:13:00.626070023,-13.0,-63.0,6.0
1904-01-01 00:21:04.709095023,E4_Acc,2024-06-26 08:13:00.657320023,-13.0,-63.0,6.0
1904-01-01 00:21:04.740345023,E4_Acc,2024-06-26 08:13:00.688570023,-13.0,-63.0,6.0
1904-01-01 00:21:04.771595023,E4_Acc,2024-06-26 08:13:00.719820023,-13.0,-63.0,6.0
1904-01-01 00:21:04.802855036,E4_Acc,2024-06-26 08:13:00.751080036,-14.0,-63.0,5.0
1904-01-01 00:21:04.834105036,E4_Acc,2024-06-26 08:13:00.782330036,-14.0,-63.0,5.0
1904-01-01 00:21:04.865355036,E4_Acc,2024-06-26 08:13:00.813580036,-13.0,-63.0,5.0
1904-01-01 00:21:04.896605036,E4_Acc,2024-06-26 08:13:00.844830036,-13.0,-63.0,6.0
1904-01-01 00:21:04.927855036,E4_Acc,2024-06-26 08:13:00.876080036,-13.0,-63.0,6.0
1904-01-01 00:21:04.959105036,E4_Acc,2024-06-26 08:13:00.907330036,-13.0,-63.0,6.0
1904-01-01 00:21:04.990355036,E4_Acc,2024-06-26 08:13:00.938580036,-13.0,-63.0,6.0
1904-01-01 00:21:05.021615050,E4_Acc,2024-06-26 08:13:00.969840050,-13.0,-63.0,6.0
1904-01-01 00:21:05.052865050,E4_Acc,2024-06-26 08:13:01.001090050,-13.0,-63.0,6.0
1904-01-01 00:21:05.084115050,E4_Acc,2024-06-26 08:13:01.032340050,-13.0,-63.0,5.0
1904-01-01 00:21:05.115365049,E4_Acc,2024-06-26 08:13:01.063590049,-13.0,-63.0,5.0
1904-01-01 00:21:05.146615050,E4_Acc,2024-06-26 08:13:01.094840050,-13.0,-63.0,5.0
1904-01-01 00:21:05.177865050,E4_Acc,2024-06-26 08:13:01.126090050,-13.0,-63.0,5.0
1904-01-01 00:21:05.209115050,E4_Acc,2024-06-26 08:13:01.157340050,-13.0,-63.0,5.0
1904-01-01 00:21:05.240375063,E4_Acc,2024-06-26 08:13:01.188600063,-13.0,-63.0,6.0
1904-01-01 00:21:05.271625063,E4_Acc,2024-06-26 08:13:01.219850063,-13.0,-63.0,6.0
1904-01-01 00:21:05.302875062,E4_Acc,2024-06-26 08:13:01.251100062,-13.0,-63.0,6.0
1904-01-01 00:21:05.334125063,E4_Acc,2024-06-26 08:13:01.282350063,-13.0,-64.0,6.0
1904-01-01 00:21:05.365375063,E4_Acc,2024-06-26 08:13:01.313600063,-13.0,-63.0,6.0
1904-01-01 00:21:05.396625063,E4_Acc,2024-06-26 08:13:01.344850063,-13.0,-63.0,6.0
1904-01-01 00:21:05.427875063,E4_Acc,2024-06-26 08:13:01.376100063,-13.0,-63.0,6.0
1904-01-01 00:21:05.459135077,E4_Acc,2024-06-26 08:13:01.407360077,-13.0,-63.0,6.0
1904-01-01 00:21:05.490385077,E4_Acc,2024-06-26 08:13:01.438610077,-13.0,-63.0,6.0
1904-01-01 00:21:05.521635077,E4_Acc,2024-06-26 08:13:01.469860077,-13.0,-63.0,6.0
1904-01-01 00:21:05.552885077,E4_Acc,2024-06-26 08:13:01.501110077,-13.0,-63.0,6.0
1904-01-01 00:21:05.584135077,E4_Acc,2024-06-26 08:13:01.532360077,-13.0,-63.0,6.0
1904-01-01 00:21:05.615385077,E4_Acc,2024-06-26 08:13:01.563610077,-13.0,-63.0,6.0
1904-01-01 00:21:05.646645090,E4_Acc,2024-06-26 08:13:01.594870090,-13.0,-63.0,6.0
1904-01-01 00:21:05.677895090,E4_Acc,2024-06-26 08:13:01.626120090,-13.0,-63.0,6.0
1904-01-01 00:21:05.709145090,E4_Acc,2024-06-26 08:13:01.657370090,-13.0,-63.0,6.0
1904-01-01 00:21:05.740395090,E4_Acc,2024-06-26 08:13:01.688620090,-13.0,-63.0,6.0
1904-01-01 00:21:05.771645090,E4_Acc,2024-06-26 08:13:01.719870090,-13.0,-63.0,6.0
1904-01-01 00:21:05.802895090,E4_Acc,2024-06-26 08:13:01.751120090,-13.0,-63.0,6.0
1904-01-01 00:21:05.834145090,E4_Acc,2024-06-26 08:13:01.782370090,-13.0,-63.0,6.0
1904-01-01 00:21:05.865405104,E4_Acc,2024-06-26 08:13:01.813630104,-13.0,-63.0,6.0
1904-01-01 00:21:05.896655104,E4_Acc,2024-06-26 08:13:01.844880104,-13.0,-63.0,6.0
1904-01-01 00:21:05.927905104,E4_Acc,2024-06-26 08:13:01.876130104,-13.0,-63.0,6.0
1904-01-01 00:21:05.959155104,E4_Acc,2024-06-26 08:13:01.907380104,-13.0,-63.0,6.0
1904-01-01 00:21:05.990405104,E4_Acc,2024-06-26 08:13:01.938630104,-13.0,-64.0,6.0
1904-01-01 00:21:06.021655104,E4_Acc,2024-06-26 08:13:01.969880104,-13.0,-63.0,6.0
1904-01-01 00:21:06.052905104,E4_Acc,2024-06-26 08:13:02.001130104,-13.0,-63.0,6.0
1904-01-01 00:21:06.084165118,E4_Acc,2024-06-26 08:13:02.032390118,-13.0,-63.0,6.0
1904-01-01 00:21:06.115415117,E4_Acc,2024-06-26 08:13:02.063640117,-14.0,-63.0,6.0
1904-01-01 00:21:06.146665118,E4_Acc,2024-06-26 08:13:02.094890118,-14.0,-63.0,6.0
1904-01-01 00:21:06.177915118,E4_Acc,2024-06-26 08:13:02.126140118,-14.0,-63.0,6.0
1904-01-01 00:21:06.209165118,E4_Acc,2024-06-26 08:13:02.157390118,-13.0,-63.0,6.0
1904-01-01 00:21:06.240415118,E4_Acc,2024-06-26 08:13:02.188640118,-14.0,-63.0,6.0
1904-01-01 00:21:06.271665118,E4_Acc,2024-06-26 08:13:02.219890118,-13.0,-63.0,6.0
1904-01-01 00:21:06.302924893,E4_Acc,2024-06-26 08:13:02.251149893,-13.0,-64.0,6.0
1904-01-01 00:21:06.334174893,E4_Acc,2024-06-26 08:13:02.282399893,-13.0,-63.0,6.0
1904-01-01 00:21:06.365424893,E4_Acc,2024-06-26 08:13:02.313649893,-13.0,-63.0,6.0
1904-01-01 00:21:06.396674893,E4_Acc,2024-06-26 08:13:02.344899893,-13.0,-63.0,6.0
1904-01-01 00:21:06.427924893,E4_Acc,2024-06-26 08:13:02.376149893,-13.0,-62.0,5.0
1904-01-01 00:21:06.459174893,E4_Acc,2024-06-26 08:13:02.407399893,-14.0,-63.0,5.0
1904-01-01 00:21:06.490424893,E4_Acc,2024-06-26 08:13:02.438649893,-14.0,-63.0,5.0
1904-01-01 00:21:06.521684906,E4_Acc,2024-06-26 08:13:02.469909906,-14.0,-63.0,6.0
1904-01-01 00:21:06.552934906,E4_Acc,2024-06-26 08:13:02.501159906,-13.0,-63.0,6.0
1904-01-01 00:21:06.584184906,E4_Acc,2024-06-26 08:13:02.532409906,-13.0,-63.0,6.0
1904-01-01 00:21:06.615434906,E4_Acc,2024-06-26 08:13:02.563659906,-13.0,-63.0,5.0
1904-01-01 00:21:06.646684906,E4_Acc,2024-06-26 08:13:02.594909906,-13.0,-63.0,5.0
1904-01-01 00:21:06.677934906,E4_Acc,2024-06-26 08:13:02.626159906,-13.0,-63.0,6.0
1904-01-01 00:21:06.709184906,E4_Acc,2024-06-26 08:13:02.657409906,-13.0,-63.0,6.0
1904-01-01 00:21:06.740444920,E4_Acc,2024-06-26 08:13:02.688669920,-13.0,-63.0,6.0
1904-01-01 00:21:06.771694920,E4_Acc,2024-06-26 08:13:02.719919920,-13.0,-63.0,6.0
1904-01-01 00:21:06.802944920,E4_Acc,2024-06-26 08:13:02.751169920,-14.0,-63.0,6.0
1904-01-01 00:21:06.834194920,E4_Acc,2024-06-26 08:13:02.782419920,-14.0,-63.0,6.0
1904-01-01 00:21:06.865444920,E4_Acc,2024-06-26 08:13:02.813669920,-14.0,-63.0,6.0
1904-01-01 00:21:06.896694920,E4_Acc,2024-06-26 08:13:02.844919920,-14.0,-63.0,6.0
1904-01-01 00:21:06.927944920,E4_Acc,2024-06-26 08:13:02.876169920,-13.0,-63.0,6.0
1904-01-01 00:21:06.959204934,E4_Acc,2024-06-26 08:13:02.907429934,-13.0,-63.0,6.0
1904-01-01 00:21:06.990454934,E4_Acc,2024-06-26 08:13:02.938679934,-13.0,-63.0,6.0
1904-01-01 00:21:07.021704934,E4_Acc,2024-06-26 08:13:02.969929934,-13.0,-63.0,6.0
1904-01-01 00:21:07.052954934,E4_Acc,2024-06-26 08:13:03.001179934,-13.0,-63.0,6.0
1904-01-01 00:21:07.084204934,E4_Acc,2024-06-26 08:13:03.032429934,-13.0,-63.0,6.0
1904-01-01 00:21:07.115454933,E4_Acc,2024-06-26 08:13:03.063679933,-13.0,-63.0,6.0
1904-01-01 00:21:07.146704934,E4_Acc,2024-06-26 08:13:03.094929934,-13.0,-63.0,6.0
1904-01-01 00:21:07.177964947,E4_Acc,2024-06-26 08:13:03.126189947,-13.0,-63.0,6.0
1904-01-01 00:21:07.209214947,E4_Acc,2024-06-26 08:13:03.157439947,-13.0,-63.0,6.0
1904-01-01 00:21:07.240464947,E4_Acc,2024-06-26 08:13:03.188689947,-13.0,-63.0,6.0
1904-01-01 00:21:07.271714947,E4_Acc,2024-06-26 08:13:03.219939947,-13.0,-63.0,6.0
1904-01-01 00:21:07.302964947,E4_Acc,2024-06-26 08:13:03.251189947,-13.0,-63.0,6.0
1904-01-01 00:21:07.334214947,E4_Acc,2024-06-26 08:13:03.282439947,-13.0,-63.0,6.0
1904-01-01 00:21:07.365464947,E4_Acc,2024-06-26 08:13:03.313689947,-13.0,-63.0,6.0
1904-01-01 00:21:07.396724961,E4_Acc,2024-06-26 08:13:03.344949961,-13.0,-63.0,6.0
1904-01-01 00:21:07.427974961,E4_Acc,2024-06-26 08:13:03.376199961,-13.0,-63.0,6.0
1904-01-01 00:21:07.459224961,E4_Acc,2024-06-26 08:13:03.407449961,-13.0,-63.0,6.0
1904-01-01 00:21:07.490474961,E4_Acc,2024-06-26 08:13:03.438699961,-13.0,-63.0,6.0
1904-01-01 00:21:07.521724961,E4_Acc,2024-06-26 08:13:03.469949961,-13.0,-63.0,6.0
1904-01-01 00:21:07.552974961,E4_Acc,2024-06-26 08:13:03.501199961,-13.0,-63.0,6.0
1904-01-01 00:21:07.584224961,E4_Acc,2024-06-26 08:13:03.532449961,-13.0,-63.0,6.0
1904-01-01 00:21:07.615484974,E4_Acc,2024-06-26 08:13:03.563709974,-13.0,-64.0,6.0
1904-01-01 00:21:07.646734974,E4_Acc,2024-06-26 08:13:03.594959974,-13.0,-63.0,6.0
1904-01-01 00:21:07.677984974,E4_Acc,2024-06-26 08:13:03.626209974,-13.0,-63.0,6.0
1904-01-01 00:21:07.709234974,E4_Acc,2024-06-26 08:13:03.657459974,-13.0,-63.0,6.0
1904-01-01 00:21:07.740484974,E4_Acc,2024-06-26 08:13:03.688709974,-13.0,-63.0,6.0
1904-01-01 00:21:07.771734974,E4_Acc,2024-06-26 08:13:03.719959974,-13.0,-63.0,6.0
1904-01-01 00:21:07.802984974,E4_Acc,2024-06-26 08:13:03.751209974,-13.0,-63.0,6.0
1904-01-01 00:21:07.834244988,E4_Acc,2024-06-26 08:13:03.782469988,-13.0,-63.0,6.0
1904-01-01 00:21:07.865494988,E4_Acc,2024-06-26 08:13:03.813719988,-13.0,-63.0,6.0
1904-01-01 00:21:07.896744988,E4_Acc,2024-06-26 08:13:03.844969988,-13.0,-63.0,6.0
1904-01-01 00:21:07.927994988,E4_Acc,2024-06-26 08:13:03.876219988,-13.0,-63.0,6.0
1904-01-01 00:21:07.959244988,E4_Acc,2024-06-26 08:13:03.907469988,-13.0,-63.0,6.0
1904-01-01 00:21:07.990494988,E4_Acc,2024-06-26 08:13:03.938719988,-13.0,-63.0,6.0
1904-01-01 00:21:08.021744988,E4_Acc,2024-06-26 08:13:03.969969988,-13.0,-63.0,6.0
1904-01-01 00:21:08.053005001,E4_Acc,2024-06-26 08:13:04.001230001,-13.0,-63.0,6.0
1904-01-01 00:21:08.084255001,E4_Acc,2024-06-26 08:13:04.032480001,-13.0,-63.0,6.0
1904-01-01 00:21:08.115505000,E4_Acc,2024-06-26 08:13:04.063730000,-14.0,-63.0,7.0
1904-01-01 00:21:08.146755001,E4_Acc,2024-06-26 08:13:04.094980001,-14.0,-63.0,7.0
1904-01-01 00:21:08.178005001,E4_Acc,2024-06-26 08:13:04.126230001,-13.0,-63.0,7.0
1904-01-01 00:21:08.209255001,E4_Acc,2024-06-26 08:13:04.157480001,-14.0,-63.0,7.0
1904-01-01 00:21:08.240515015,E4_Acc,2024-06-26 08:13:04.188740015,-14.0,-63.0,6.0
1904-01-01 00:21:08.271765015,E4_Acc,2024-06-26 08:13:04.219990015,-14.0,-63.0,6.0
1904-01-01 00:21:08.303015014,E4_Acc,2024-06-26 08:13:04.251240014,-14.0,-63.0,6.0
1904-01-01 00:21:08.334265015,E4_Acc,2024-06-26 08:13:04.282490015,-13.0,-63.0,5.0
1904-01-01 00:21:08.365515015,E4_Acc,2024-06-26 08:13:04.313740015,-13.0,-63.0,5.0
1904-01-01 00:21:08.396765015,E4_Acc,2024-06-26 08:13:04.344990015,-13.0,-63.0,6.0
1904-01-01 00:21:08.428015015,E4_Acc,2024-06-26 08:13:04.376240015,-12.0,-63.0,6.0
1904-01-01 00:21:08.459275029,E4_Acc,2024-06-26 08:13:04.407500029,-12.0,-63.0,6.0
1904-01-01 00:21:08.490525029,E4_Acc,2024-06-26 08:13:04.438750029,-12.0,-63.0,7.0
1904-01-01 00:21:08.521775029,E4_Acc,2024-06-26 08:13:04.470000029,-12.0,-63.0,7.0
1904-01-01 00:21:08.553025029,E4_Acc,2024-06-26 08:13:04.501250029,-13.0,-63.0,7.0
1904-01-01 00:21:08.584275029,E4_Acc,2024-06-26 08:13:04.532500029,-13.0,-63.0,6.0
1904-01-01 00:21:08.615525029,E4_Acc,2024-06-26 08:13:04.563750029,-13.0,-63.0,6.0
1904-01-01 00:21:08.646775029,E4_Acc,2024-06-26 08:13:04.595000029,-14.0,-63.0,6.0
1904-01-01 00:21:08.678035042,E4_Acc,2024-06-26 08:13:04.626260042,-14.0,-63.0,6.0
1904-01-01 00:21:08.709285042,E4_Acc,2024-06-26 08:13:04.657510042,-14.0,-63.0,6.0
1904-01-01 00:21:08.740535042,E4_Acc,2024-06-26 08:13:04.688760042,-14.0,-63.0,7.0
1904-01-01 00:21:08.771785042,E4_Acc,2024-06-26 08:13:04.720010042,-14.0,-63.0,6.0
1904-01-01 00:21:08.803035042,E4_Acc,2024-06-26 08:13:04.751260042,-13.0,-63.0,6.0
1904-01-01 00:21:08.834285042,E4_Acc,2024-06-26 08:13:04.782510042,-13.0,-63.0,6.0
1904-01-01 00:21:08.865535042,E4_Acc,2024-06-26 08:13:04.813760042,-13.0,-63.0,6.0
1904-01-01 00:21:08.896795056,E4_Acc,2024-06-26 08:13:04.845020056,-13.0,-63.0,6.0
1904-01-01 00:21:08.928045056,E4_Acc,2024-06-26 08:13:04.876270056,-13.0,-63.0,6.0
1904-01-01 00:21:08.959295056,E4_Acc,2024-06-26 08:13:04.907520056,-13.0,-63.0,6.0
1904-01-01 00:21:08.990545056,E4_Acc,2024-06-26 08:13:04.938770056,-13.0,-63.0,6.0
1904-01-01 00:21:09.021795056,E4_Acc,2024-06-26 08:13:04.970020056,-13.0,-63.0,6.0
1904-01-01 00:21:09.053045056,E4_Acc,2024-06-26 08:13:05.001270056,-13.0,-63.0,6.0
1904-01-01 00:21:09.084295056,E4_Acc,2024-06-26 08:13:05.032520056,-13.0,-63.0,6.0
1904-01-01 00:21:09.115555068,E4_Acc,2024-06-26 08:13:05.063780068,-13.0,-63.0,6.0
1904-01-01 00:21:09.146805069,E4_Acc,2024-06-26 08:13:05.095030069,-13.0,-63.0,6.0
1904-01-01 00:21:09.178055069,E4_Acc,2024-06-26 08:13:05.126280069,-13.0,-63.0,6.0
1904-01-01 00:21:09.209305069,E4_Acc,2024-06-26 08:13:05.157530069,-13.0,-63.0,6.0
1904-01-01 00:21:09.240555069,E4_Acc,2024-06-26 08:13:05.188780069,-13.0,-63.0,6.0
1904-01-01 00:21:09.271805069,E4_Acc,2024-06-26 08:13:05.220030069,-13.0,-63.0,6.0
1904-01-01 00:21:09.303055069,E4_Acc,2024-06-26 08:13:05.251280069,-13.0,-63.0,6.0
1904-01-01 00:21:09.334315083,E4_Acc,2024-06-26 08:13:05.282540083,-13.0,-63.0,6.0
1904-01-01 00:21:09.365565083,E4_Acc,2024-06-26 08:13:05.313790083,-13.0,-63.0,6.0
1904-01-01 00:21:09.396815083,E4_Acc,2024-06-26 08:13:05.345040083,-13.0,-63.0,6.0
1904-01-01 00:21:09.428065083,E4_Acc,2024-06-26 08:13:05.376290083,-13.0,-63.0,6.0
1904-01-01 00:21:09.459315083,E4_Acc,2024-06-26 08:13:05.407540083,-13.0,-63.0,6.0
1904-01-01 00:21:09.490565083,E4_Acc,2024-06-26 08:13:05.438790083,-13.0,-63.0,6.0
1904-01-01 00:21:09.521815083,E4_Acc,2024-06-26 08:13:05.470040083,-13.0,-63.0,6.0
1904-01-01 00:21:09.553075097,E4_Acc,2024-06-26 08:13:05.501300097,-13.0,-63.0,6.0
