Seconds,Stream,E4_Seconds,AccX,AccY,AccZ
1904-01-01 00:12:27.200000011,E4_Acc,2024-06-24 11:34:00.141160011,-10.0,-63.0,11.0
1904-01-01 00:12:27.231250011,E4_Acc,2024-06-24 11:34:00.172410011,-10.0,-63.0,11.0
1904-01-01 00:12:27.262500011,E4_Acc,2024-06-24 11:34:00.203660011,-10.0,-63.0,11.0
1904-01-01 00:12:27.293760025,E4_Acc,2024-06-24 11:34:00.234920025,-8.0,-63.0,12.0
1904-01-01 00:12:27.325010024,E4_Acc,2024-06-24 11:34:00.266170024,-9.0,-64.0,11.0
1904-01-01 00:12:27.356260025,E4_Acc,2024-06-24 11:34:00.297420025,-9.0,-64.0,12.0
1904-01-01 00:12:27.387510025,E4_Acc,2024-06-24 11:34:00.328670025,-9.0,-63.0,12.0
1904-01-01 00:12:27.418760025,E4_Acc,2024-06-24 11:34:00.359920025,-6.0,-63.0,12.0
1904-01-01 00:12:27.450010025,E4_Acc,2024-06-24 11:34:00.391170025,-9.0,-63.0,11.0
1904-01-01 00:12:27.481260025,E4_Acc,2024-06-24 11:34:00.422420025,-7.0,-63.0,11.0
1904-01-01 00:12:27.512520038,E4_Acc,2024-06-24 11:34:00.453680038,-9.0,-63.0,12.0
1904-01-01 00:12:27.543770038,E4_Acc,2024-06-24 11:34:00.484930038,-10.0,-63.0,12.0
1904-01-01 00:12:27.575020038,E4_Acc,2024-06-24 11:34:00.516180038,-10.0,-63.0,12.0
1904-01-01 00:12:27.606270038,E4_Acc,2024-06-24 11:34:00.547430038,-9.0,-63.0,12.0
1904-01-01 00:12:27.637520038,E4_Acc,2024-06-24 11:34:00.578680038,-10.0,-63.0,12.0
1904-01-01 00:12:27.668770038,E4_Acc,2024-06-24 11:34:00.609930038,-9.0,-63.0,12.0
1904-01-01 00:12:27.700020038,E4_Acc,2024-06-24 11:34:00.641180038,-10.0,-63.0,12.0
1904-01-01 00:12:27.731280052,E4_Acc,2024-06-24 11:34:00.672440052,-9.0,-63.0,11.0
1904-01-01 00:12:27.762530052,E4_Acc,2024-06-24 11:34:00.703690052,-9.0,-63.0,12.0
1904-01-01 00:12:27.793780052,E4_Acc,2024-06-24 11:34:00.734940052,-9.0,-63.0,12.0
1904-01-01 00:12:27.825030052,E4_Acc,2024-06-24 11:34:00.766190052,-9.0,-63.0,12.0
1904-01-01 00:12:27.856280052,E4_Acc,2024-06-24 11:34:00.797440052,-8.0,-63.0,11.0
1904-01-01 00:12:27.887530052,E4_Acc,2024-06-24 11:34:00.828690052,-9.0,-63.0,11.0
1904-01-01 00:12:27.918780052,E4_Acc,2024-06-24 11:34:00.859940052,-10.0,-63.0,11.0
1904-01-01 00:12:27.950040066,E4_Acc,2024-06-24 11:34:00.891200066,-9.0,-63.0,12.0
1904-01-01 00:12:27.981290066,E4_Acc,2024-06-24 11:34:00.922450066,-9.0,-63.0,12.0
1904-01-01 00:12:28.012540066,E4_Acc,2024-06-24 11:34:00.953700066,-9.0,-63.0,11.0
1904-01-01 00:12:28.043790066,E4_Acc,2024-06-24 11:34:00.984950066,-9.0,-64.0,11.0
1904-01-01 00:12:28.075040066,E4_Acc,2024-06-24 11:34:01.016200066,-9.0,-63.0,12.0
1904-01-01 00:12:28.106290066,E4_Acc,2024-06-24 11:34:01.047450066,-10.0,-63.0,12.0
1904-01-01 00:12:28.137540066,E4_Acc,2024-06-24 11:34:01.078700066,-9.0,-63.0,12.0
1904-01-01 00:12:28.168800079,E4_Acc,2024-06-24 11:34:01.109960079,-9.0,-63.0,12.0
1904-01-01 00:12:28.200050079,E4_Acc,2024-06-24 11:34:01.141210079,-10.0,-63.0,11.0
1904-01-01 00:12:28.231300079,E4_Acc,2024-06-24 11:34:01.172460079,-10.0,-63.0,11.0
1904-01-01 00:12:28.262550079,E4_Acc,2024-06-24 11:34:01.203710079,-10.0,-63.0,11.0
1904-01-01 00:12:28.293800079,E4_Acc,2024-06-24 11:34:01.234960079,-10.0,-63.0,11.0
1904-01-01 00:12:28.325050079,E4_Acc,2024-06-24 11:34:01.266210079,-10.0,-63.0,11.0
1904-01-01 00:12:28.356300079,E4_Acc,2024-06-24 11:34:01.297460079,-10.0,-63.0,11.0
1904-01-01 00:12:28.387560093,E4_Acc,2024-06-24 11:34:01.328720093,-10.0,-63.0,12.0
1904-01-01 00:12:28.418810093,E4_Acc,2024-06-24 11:34:01.359970093,-10.0,-63.0,12.0
1904-01-01 00:12:28.450060093,E4_Acc,2024-06-24 11:34:01.391220093,-10.0,-63.0,11.0
1904-01-01 00:12:28.481310093,E4_Acc,2024-06-24 11:34:01.422470093,-9.0,-63.0,12.0
1904-01-01 00:12:28.512560093,E4_Acc,2024-06-24 11:34:01.453720093,-9.0,-63.0,12.0
1904-01-01 00:12:28.543810093,E4_Acc,2024-06-24 11:34:01.484970093,-9.0,-63.0,10.0
1904-01-01 00:12:28.575060093,E4_Acc,2024-06-24 11:34:01.516220093,-8.0,-63.0,12.0
1904-01-01 00:12:28.606320106,E4_Acc,2024-06-24 11:34:01.547480106,-10.0,-63.0,12.0
1904-01-01 00:12:28.637570106,E4_Acc,2024-06-24 11:34:01.578730106,-10.0,-63.0,10.0
1904-01-01 00:12:28.668820106,E4_Acc,2024-06-24 11:34:01.609980106,-9.0,-63.0,10.0
1904-01-01 00:12:28.700070106,E4_Acc,2024-06-24 11:34:01.641230106,-10.0,-63.0,12.0
1904-01-01 00:12:28.731320106,E4_Acc,2024-06-24 11:34:01.672480106,-11.0,-63.0,11.0
1904-01-01 00:12:28.762570106,E4_Acc,2024-06-24 11:34:01.703730106,-11.0,-63.0,10.0
1904-01-01 00:12:28.793829882,E4_Acc,2024-06-24 11:34:01.734989882,-9.0,-63.0,11.0
1904-01-01 00:12:28.825079882,E4_Acc,2024-06-24 11:34:01.766239882,-10.0,-63.0,12.0
1904-01-01 00:12:28.856329882,E4_Acc,2024-06-24 11:34:01.797489882,-9.0,-63.0,12.0
1904-01-01 00:12:28.887579882,E4_Acc,2024-06-24 11:34:01.828739882,-10.0,-64.0,12.0
1904-01-01 00:12:28.918829882,E4_Acc,2024-06-24 11:34:01.859989882,-10.0,-63.0,10.0
1904-01-01 00:12:28.950079882,E4_Acc,2024-06-24 11:34:01.891239882,-9.0,-63.0,12.0
1904-01-01 00:12:28.981329882,E4_Acc,2024-06-24 11:34:01.922489882,-10.0,-63.0,10.0
1904-01-01 00:12:29.012589895,E4_Acc,2024-06-24 11:34:01.953749895,-11.0,-63.0,11.0
1904-01-01 00:12:29.043839895,E4_Acc,2024-06-24 11:34:01.984999895,-10.0,-63.0,12.0
1904-01-01 00:12:29.075089895,E4_Acc,2024-06-24 11:34:02.016249895,-10.0,-63.0,12.0
1904-01-01 00:12:29.106339895,E4_Acc,2024-06-24 11:34:02.047499895,-11.0,-63.0,11.0
1904-01-01 00:12:29.137589895,E4_Acc,2024-06-24 11:34:02.078749895,-11.0,-63.0,11.0
1904-01-01 00:12:29.168839895,E4_Acc,2024-06-24 11:34:02.109999895,-11.0,-63.0,10.0
1904-01-01 00:12:29.200089895,E4_Acc,2024-06-24 11:34:02.141249895,-8.0,-63.0,12.0
1904-01-01 00:12:29.231349909,E4_Acc,2024-06-24 11:34:02.172509909,-9.0,-64.0,12.0
1904-01-01 00:12:29.262599909,E4_Acc,2024-06-24 11:34:02.203759909,-10.0,-63.0,10.0
1904-01-01 00:12:29.293849909,E4_Acc,2024-06-24 11:34:02.235009909,-8.0,-63.0,12.0
1904-01-01 00:12:29.325099909,E4_Acc,2024-06-24 11:34:02.266259909,-7.0,-62.0,12.0
1904-01-01 00:12:29.356349909,E4_Acc,2024-06-24 11:34:02.297509909,-7.0,-63.0,13.0
1904-01-01 00:12:29.387599909,E4_Acc,2024-06-24 11:34:02.328759909,-7.0,-63.0,12.0
1904-01-01 00:12:29.418849909,E4_Acc,2024-06-24 11:34:02.360009909,-10.0,-64.0,12.0
1904-01-01 00:12:29.450109922,E4_Acc,2024-06-24 11:34:02.391269922,-10.0,-63.0,11.0
1904-01-01 00:12:29.481359922,E4_Acc,2024-06-24 11:34:02.422519922,-10.0,-63.0,11.0
1904-01-01 00:12:29.512609922,E4_Acc,2024-06-24 11:34:02.453769922,-9.0,-63.0,11.0
1904-01-01 00:12:29.543859922,E4_Acc,2024-06-24 11:34:02.485019922,-9.0,-63.0,12.0
1904-01-01 00:12:29.575109922,E4_Acc,2024-06-24 11:34:02.516269922,-9.0,-64.0,11.0
1904-01-01 00:12:29.606359922,E4_Acc,2024-06-24 11:34:02.547519922,-8.0,-63.0,12.0
1904-01-01 00:12:29.637609922,E4_Acc,2024-06-24 11:34:02.578769922,-8.0,-64.0,11.0
1904-01-01 00:12:29.668869936,E4_Acc,2024-06-24 11:34:02.610029936,-7.0,-63.0,13.0
1904-01-01 00:12:29.700119936,E4_Acc,2024-06-24 11:34:02.641279936,-6.0,-64.0,14.0
1904-01-01 00:12:29.731369936,E4_Acc,2024-06-24 11:34:02.672529936,-7.0,-63.0,12.0
1904-01-01 00:12:29.762619936,E4_Acc,2024-06-24 11:34:02.703779936,-9.0,-63.0,12.0
1904-01-01 00:12:29.793869936,E4_Acc,2024-06-24 11:34:02.735029936,-9.0,-63.0,12.0
1904-01-01 00:12:29.825119936,E4_Acc,2024-06-24 11:34:02.766279936,-9.0,-63.0,13.0
1904-01-01 00:12:29.856369936,E4_Acc,2024-06-24 11:34:02.797529936,-7.0,-63.0,13.0
1904-01-01 00:12:29.887629949,E4_Acc,2024-06-24 11:34:02.828789949,-8.0,-63.0,13.0
1904-01-01 00:12:29.918879949,E4_Acc,2024-06-24 11:34:02.860039949,-7.0,-63.0,14.0
1904-01-01 00:12:29.950129949,E4_Acc,2024-06-24 11:34:02.891289949,-8.0,-64.0,13.0
1904-01-01 00:12:29.981379949,E4_Acc,2024-06-24 11:34:02.922539949,-8.0,-64.0,12.0
1904-01-01 00:12:30.012629949,E4_Acc,2024-06-24 11:34:02.953789949,-8.0,-64.0,12.0
1904-01-01 00:12:30.043879949,E4_Acc,2024-06-24 11:34:02.985039949,-8.0,-63.0,11.0
1904-01-01 00:12:30.075129949,E4_Acc,2024-06-24 11:34:03.016289949,-7.0,-63.0,12.0
1904-01-01 00:12:30.106389963,E4_Acc,2024-06-24 11:34:03.047549963,-7.0,-63.0,12.0
1904-01-01 00:12:30.137639963,E4_Acc,2024-06-24 11:34:03.078799963,-6.0,-63.0,13.0
1904-01-01 00:12:30.168889963,E4_Acc,2024-06-24 11:34:03.110049963,-3.0,-63.0,11.0
1904-01-01 00:12:30.200139963,E4_Acc,2024-06-24 11:34:03.141299963,-5.0,-62.0,11.0
1904-01-01 00:12:30.231389963,E4_Acc,2024-06-24 11:34:03.172549963,-8.0,-64.0,13.0
1904-01-01 00:12:30.262639963,E4_Acc,2024-06-24 11:34:03.203799963,-10.0,-64.0,13.0
1904-01-01 00:12:30.293889963,E4_Acc,2024-06-24 11:34:03.235049963,-9.0,-63.0,13.0
1904-01-01 00:12:30.325149976,E4_Acc,2024-06-24 11:34:03.266309976,-9.0,-62.0,12.0
1904-01-01 00:12:30.356399977,E4_Acc,2024-06-24 11:34:03.297559977,-8.0,-62.0,12.0
1904-01-01 00:12:30.387649977,E4_Acc,2024-06-24 11:34:03.328809977,-8.0,-62.0,11.0
1904-01-01 00:12:30.418899977,E4_Acc,2024-06-24 11:34:03.360059977,-8.0,-62.0,12.0
1904-01-01 00:12:30.450149977,E4_Acc,2024-06-24 11:34:03.391309977,-8.0,-63.0,11.0
1904-01-01 00:12:30.481399977,E4_Acc,2024-06-24 11:34:03.422559977,-8.0,-63.0,10.0
1904-01-01 00:12:30.512649977,E4_Acc,2024-06-24 11:34:03.453809977,-6.0,-63.0,12.0
1904-01-01 00:12:30.543909990,E4_Acc,2024-06-24 11:34:03.485069990,-4.0,-63.0,15.0
1904-01-01 00:12:30.575159989,E4_Acc,2024-06-24 11:34:03.516319989,-7.0,-64.0,12.0
1904-01-01 00:12:30.606409990,E4_Acc,2024-06-24 11:34:03.547569990,-4.0,-64.0,18.0
1904-01-01 00:12:30.637659990,E4_Acc,2024-06-24 11:34:03.578819990,-8.0,-64.0,14.0
1904-01-01 00:12:30.668909990,E4_Acc,2024-06-24 11:34:03.610069990,-9.0,-63.0,13.0
1904-01-01 00:12:30.700159990,E4_Acc,2024-06-24 11:34:03.641319990,-9.0,-62.0,13.0
1904-01-01 00:12:30.731409990,E4_Acc,2024-06-24 11:34:03.672569990,-9.0,-62.0,12.0
1904-01-01 00:12:30.762670004,E4_Acc,2024-06-24 11:34:03.703830004,-10.0,-63.0,10.0
1904-01-01 00:12:30.793920004,E4_Acc,2024-06-24 11:34:03.735080004,-9.0,-63.0,12.0
1904-01-01 00:12:30.825170004,E4_Acc,2024-06-24 11:34:03.766330004,-8.0,-63.0,14.0
1904-01-01 00:12:30.856420004,E4_Acc,2024-06-24 11:34:03.797580004,-7.0,-63.0,15.0
1904-01-01 00:12:30.887670004,E4_Acc,2024-06-24 11:34:03.828830004,-7.0,-64.0,14.0
1904-01-01 00:12:30.918920004,E4_Acc,2024-06-24 11:34:03.860080004,-8.0,-64.0,13.0
1904-01-01 00:12:30.950180017,E4_Acc,2024-06-24 11:34:03.891340017,-7.0,-63.0,12.0
1904-01-01 00:12:30.981430017,E4_Acc,2024-06-24 11:34:03.922590017,-7.0,-62.0,13.0
1904-01-01 00:12:31.012680017,E4_Acc,2024-06-24 11:34:03.953840017,-8.0,-63.0,12.0
1904-01-01 00:12:31.043930017,E4_Acc,2024-06-24 11:34:03.985090017,-7.0,-63.0,11.0
1904-01-01 00:12:31.075180016,E4_Acc,2024-06-24 11:34:04.016340016,-8.0,-63.0,11.0
1904-01-01 00:12:31.106430017,E4_Acc,2024-06-24 11:34:04.047590017,-9.0,-63.0,11.0
1904-01-01 00:12:31.137680017,E4_Acc,2024-06-24 11:34:04.078840017,-8.0,-63.0,12.0
1904-01-01 00:12:31.168940031,E4_Acc,2024-06-24 11:34:04.110100031,-8.0,-63.0,12.0
1904-01-01 00:12:31.200190031,E4_Acc,2024-06-24 11:34:04.141350031,-9.0,-63.0,12.0
1904-01-01 00:12:31.231440031,E4_Acc,2024-06-24 11:34:04.172600031,-10.0,-63.0,11.0
1904-01-01 00:12:31.262690031,E4_Acc,2024-06-24 11:34:04.203850031,-9.0,-63.0,12.0
1904-01-01 00:12:31.293940031,E4_Acc,2024-06-24 11:34:04.235100031,-7.0,-63.0,12.0
1904-01-01 00:12:31.325190031,E4_Acc,2024-06-24 11:34:04.266350031,-8.0,-63.0,12.0
1904-01-01 00:12:31.356440031,E4_Acc,2024-06-24 11:34:04.297600031,-8.0,-64.0,12.0
1904-01-01 00:12:31.387700044,E4_Acc,2024-06-24 11:34:04.328860044,-6.0,-64.0,12.0
1904-01-01 00:12:31.418950044,E4_Acc,2024-06-24 11:34:04.360110044,-8.0,-63.0,12.0
1904-01-01 00:12:31.450200044,E4_Acc,2024-06-24 11:34:04.391360044,-8.0,-63.0,12.0
1904-01-01 00:12:31.481450044,E4_Acc,2024-06-24 11:34:04.422610044,-8.0,-63.0,12.0
1904-01-01 00:12:31.512700044,E4_Acc,2024-06-24 11:34:04.453860044,-8.0,-63.0,11.0
1904-01-01 00:12:31.543950044,E4_Acc,2024-06-24 11:34:04.485110044,-9.0,-63.0,11.0
1904-01-01 00:12:31.575200044,E4_Acc,2024-06-24 11:34:04.516360044,-8.0,-63.0,11.0
1904-01-01 00:12:31.606460058,E4_Acc,2024-06-24 11:34:04.547620058,-8.0,-64.0,11.0
1904-01-01 00:12:31.637710058,E4_Acc,2024-06-24 11:34:04.578870058,-8.0,-63.0,13.0
1904-01-01 00:12:31.668960058,E4_Acc,2024-06-24 11:34:04.610120058,-9.0,-64.0,12.0
1904-01-01 00:12:31.700210058,E4_Acc,2024-06-24 11:34:04.641370058,-9.0,-63.0,12.0
1904-01-01 00:12:31.731460058,E4_Acc,2024-06-24 11:34:04.672620058,-9.0,-63.0,12.0
1904-01-01 00:12:31.762710058,E4_Acc,2024-06-24 11:34:04.703870058,-10.0,-63.0,12.0
1904-01-01 00:12:31.793960058,E4_Acc,2024-06-24 11:34:04.735120058,-9.0,-63.0,11.0
1904-01-01 00:12:31.825220072,E4_Acc,2024-06-24 11:34:04.766380072,-9.0,-63.0,11.0
1904-01-01 00:12:31.856470072,E4_Acc,2024-06-24 11:34:04.797630072,-8.0,-63.0,11.0
1904-01-01 00:12:31.887720072,E4_Acc,2024-06-24 11:34:04.828880072,-8.0,-64.0,12.0
1904-01-01 00:12:31.918970072,E4_Acc,2024-06-24 11:34:04.860130072,-8.0,-64.0,12.0
1904-01-01 00:12:31.950220072,E4_Acc,2024-06-24 11:34:04.891380072,-9.0,-63.0,12.0
1904-01-01 00:12:31.981470072,E4_Acc,2024-06-24 11:34:04.922630072,-9.0,-63.0,12.0
1904-01-01 00:12:32.012720072,E4_Acc,2024-06-24 11:34:04.953880072,-9.0,-63.0,11.0
1904-01-01 00:12:32.043980085,E4_Acc,2024-06-24 11:34:04.985140085,-9.0,-63.0,11.0
1904-01-01 00:12:32.075230084,E4_Acc,2024-06-24 11:34:05.016390084,-9.0,-64.0,12.0
1904-01-01 00:12:32.106480085,E4_Acc,2024-06-24 11:34:05.047640085,-10.0,-64.0,12.0
1904-01-01 00:12:32.137730085,E4_Acc,2024-06-24 11:34:05.078890085,-9.0,-63.0,12.0
1904-01-01 00:12:32.168980085,E4_Acc,2024-06-24 11:34:05.110140085,-8.0,-63.0,12.0
1904-01-01 00:12:32.200230085,E4_Acc,2024-06-24 11:34:05.141390085,-8.0,-63.0,12.0
1904-01-01 00:12:32.231480085,E4_Acc,2024-06-24 11:34:05.172640085,-8.0,-63.0,11.0
1904-01-01 00:12:32.262740099,E4_Acc,2024-06-24 11:34:05.203900099,-8.0,-63.0,12.0
1904-01-01 00:12:32.293990099,E4_Acc,2024-06-24 11:34:05.235150099,-9.0,-63.0,12.0
1904-01-01 00:12:32.325240099,E4_Acc,2024-06-24 11:34:05.266400099,-9.0,-63.0,12.0
1904-01-01 00:12:32.356490099,E4_Acc,2024-06-24 11:34:05.297650099,-9.0,-63.0,11.0
1904-01-01 00:12:32.387740099,E4_Acc,2024-06-24 11:34:05.328900099,-9.0,-63.0,12.0
1904-01-01 00:12:32.418990099,E4_Acc,2024-06-24 11:34:05.360150099,-9.0,-63.0,12.0
1904-01-01 00:12:32.450240099,E4_Acc,2024-06-24 11:34:05.391400099,-9.0,-63.0,12.0
1904-01-01 00:12:32.481500112,E4_Acc,2024-06-24 11:34:05.422660112,-9.0,-64.0,12.0
1904-01-01 00:12:32.512750112,E4_Acc,2024-06-24 11:34:05.453910112,-9.0,-64.0,12.0
1904-01-01 00:12:32.544000112,E4_Acc,2024-06-24 11:34:05.485160112,-9.0,-64.0,12.0
1904-01-01 00:12:32.575250112,E4_Acc,2024-06-24 11:34:05.516410112,-9.0,-63.0,11.0
1904-01-01 00:12:32.606500112,E4_Acc,2024-06-24 11:34:05.547660112,-8.0,-63.0,11.0
1904-01-01 00:12:32.637750112,E4_Acc,2024-06-24 11:34:05.578910112,-8.0,-63.0,12.0
1904-01-01 00:12:32.669000112,E4_Acc,2024-06-24 11:34:05.610160112,-9.0,-63.0,11.0
1904-01-01 00:12:32.700259888,E4_Acc,2024-06-24 11:34:05.641419888,-8.0,-63.0,12.0
1904-01-01 00:12:32.731509888,E4_Acc,2024-06-24 11:34:05.672669888,-9.0,-63.0,11.0
1904-01-01 00:12:32.762759888,E4_Acc,2024-06-24 11:34:05.703919888,-8.0,-63.0,11.0
1904-01-01 00:12:32.794009888,E4_Acc,2024-06-24 11:34:05.735169888,-8.0,-63.0,12.0
1904-01-01 00:12:32.825259888,E4_Acc,2024-06-24 11:34:05.766419888,-8.0,-63.0,13.0
1904-01-01 00:12:32.856509888,E4_Acc,2024-06-24 11:34:05.797669888,-9.0,-64.0,12.0
1904-01-01 00:12:32.887759888,E4_Acc,2024-06-24 11:34:05.828919888,-10.0,-64.0,12.0
1904-01-01 00:12:32.919019901,E4_Acc,2024-06-24 11:34:05.860179901,-10.0,-63.0,12.0
1904-01-01 00:12:32.950269901,E4_Acc,2024-06-24 11:34:05.891429901,-7.0,-63.0,12.0
1904-01-01 00:12:32.981519901,E4_Acc,2024-06-24 11:34:05.922679901,-9.0,-64.0,10.0
1904-01-01 00:12:33.012769901,E4_Acc,2024-06-24 11:34:05.953929901,-8.0,-64.0,11.0
1904-01-01 00:12:33.044019901,E4_Acc,2024-06-24 11:34:05.985179901,-8.0,-63.0,12.0
1904-01-01 00:12:33.075269901,E4_Acc,2024-06-24 11:34:06.016429901,-8.0,-63.0,12.0
1904-01-01 00:12:33.106519901,E4_Acc,2024-06-24 11:34:06.047679901,-7.0,-63.0,12.0
1904-01-01 00:12:33.137779915,E4_Acc,2024-06-24 11:34:06.078939915,-8.0,-63.0,12.0
1904-01-01 00:12:33.169029915,E4_Acc,2024-06-24 11:34:06.110189915,-8.0,-63.0,12.0
1904-01-01 00:12:33.200279915,E4_Acc,2024-06-24 11:34:06.141439915,-9.0,-63.0,12.0
1904-01-01 00:12:33.231529915,E4_Acc,2024-06-24 11:34:06.172689915,-9.0,-64.0,12.0
1904-01-01 00:12:33.262779915,E4_Acc,2024-06-24 11:34:06.203939915,-9.0,-63.0,11.0
1904-01-01 00:12:33.294029915,E4_Acc,2024-06-24 11:34:06.235189915,-9.0,-63.0,12.0
1904-01-01 00:12:33.325279915,E4_Acc,2024-06-24 11:34:06.266439915,-9.0,-63.0,12.0
1904-01-01 00:12:33.356539928,E4_Acc,2024-06-24 11:34:06.297699928,-9.0,-63.0,11.0
1904-01-01 00:12:33.387789928,E4_Acc,2024-06-24 11:34:06.328949928,-9.0,-63.0,12.0
1904-01-01 00:12:33.419039928,E4_Acc,2024-06-24 11:34:06.360199928,-9.0,-63.0,13.0
1904-01-01 00:12:33.450289928,E4_Acc,2024-06-24 11:34:06.391449928,-9.0,-63.0,12.0
1904-01-01 00:12:33.481539928,E4_Acc,2024-06-24 11:34:06.422699928,-8.0,-63.0,11.0
1904-01-01 00:12:33.512789928,E4_Acc,2024-06-24 11:34:06.453949928,-9.0,-63.0,12.0
1904-01-01 00:12:33.544039928,E4_Acc,2024-06-24 11:34:06.485199928,-7.0,-63.0,13.0
1904-01-01 00:12:33.575299942,E4_Acc,2024-06-24 11:34:06.516459942,-9.0,-63.0,12.0
1904-01-01 00:12:33.606549942,E4_Acc,2024-06-24 11:34:06.547709942,-8.0,-63.0,12.0
1904-01-01 00:12:33.637799942,E4_Acc,2024-06-24 11:34:06.578959942,-7.0,-63.0,12.0
1904-01-01 00:12:33.669049942,E4_Acc,2024-06-24 11:34:06.610209942,-8.0,-63.0,13.0
1904-01-01 00:12:33.700299942,E4_Acc,2024-06-24 11:34:06.641459942,-9.0,-63.0,12.0
1904-01-01 00:12:33.731549942,E4_Acc,2024-06-24 11:34:06.672709942,-8.0,-63.0,12.0
1904-01-01 00:12:33.762809955,E4_Acc,2024-06-24 11:34:06.703969955,-8.0,-64.0,12.0
1904-01-01 00:12:33.794059955,E4_Acc,2024-06-24 11:34:06.735219955,-9.0,-63.0,12.0
1904-01-01 00:12:33.825309955,E4_Acc,2024-06-24 11:34:06.766469955,-8.0,-63.0,12.0
1904-01-01 00:12:33.856559955,E4_Acc,2024-06-24 11:34:06.797719955,-9.0,-63.0,12.0
1904-01-01 00:12:33.887809955,E4_Acc,2024-06-24 11:34:06.828969955,-8.0,-63.0,12.0
1904-01-01 00:12:33.919059955,E4_Acc,2024-06-24 11:34:06.860219955,-8.0,-63.0,12.0
1904-01-01 00:12:33.950309955,E4_Acc,2024-06-24 11:34:06.891469955,-8.0,-63.0,12.0
1904-01-01 00:12:33.981569969,E4_Acc,2024-06-24 11:34:06.922729969,-8.0,-63.0,12.0
1904-01-01 00:12:34.012819969,E4_Acc,2024-06-24 11:34:06.953979969,-8.0,-63.0,12.0
1904-01-01 00:12:34.044069969,E4_Acc,2024-06-24 11:34:06.985229969,-8.0,-63.0,12.0
1904-01-01 00:12:34.075319969,E4_Acc,2024-06-24 11:34:07.016479969,-8.0,-63.0,12.0
1904-01-01 00:12:34.106569969,E4_Acc,2024-06-24 11:34:07.047729969,-8.0,-63.0,12.0
1904-01-01 00:12:34.137819969,E4_Acc,2024-06-24 11:34:07.078979969,-9.0,-63.0,12.0
1904-01-01 00:12:34.169069969,E4_Acc,2024-06-24 11:34:07.110229969,-9.0,-63.0,11.0
1904-01-01 00:12:34.200329983,E4_Acc,2024-06-24 11:34:07.141489983,-9.0,-63.0,12.0
1904-01-01 00:12:34.231579983,E4_Acc,2024-06-24 11:34:07.172739983,-9.0,-63.0,12.0
1904-01-01 00:12:34.262829983,E4_Acc,2024-06-24 11:34:07.203989983,-8.0,-63.0,12.0
1904-01-01 00:12:34.294079983,E4_Acc,2024-06-24 11:34:07.235239983,-9.0,-63.0,11.0
1904-01-01 00:12:34.325329983,E4_Acc,2024-06-24 11:34:07.266489983,-8.0,-63.0,12.0
1904-01-01 00:12:34.356579983,E4_Acc,2024-06-24 11:34:07.297739983,-9.0,-63.0,12.0
1904-01-01 00:12:34.387829983,E4_Acc,2024-06-24 11:34:07.328989983,-8.0,-63.0,11.0
1904-01-01 00:12:34.419089996,E4_Acc,2024-06-24 11:34:07.360249996,-8.0,-63.0,11.0
1904-01-01 00:12:34.450339996,E4_Acc,2024-06-24 11:34:07.391499996,-8.0,-63.0,11.0
1904-01-01 00:12:34.481589996,E4_Acc,2024-06-24 11:34:07.422749996,-8.0,-63.0,11.0
1904-01-01 00:12:34.512839996,E4_Acc,2024-06-24 11:34:07.453999996,-8.0,-63.0,12.0
1904-01-01 00:12:34.544089996,E4_Acc,2024-06-24 11:34:07.485249996,-8.0,-63.0,12.0
1904-01-01 00:12:34.575339995,E4_Acc,2024-06-24 11:34:07.516499995,-9.0,-63.0,11.0
1904-01-01 00:12:34.606589996,E4_Acc,2024-06-24 11:34:07.547749996,-8.0,-63.0,11.0
1904-01-01 00:12:34.637850010,E4_Acc,2024-06-24 11:34:07.579010010,-8.0,-63.0,11.0
1904-01-01 00:12:34.669100010,E4_Acc,2024-06-24 11:34:07.610260010,-8.0,-63.0,12.0
1904-01-01 00:12:34.700350010,E4_Acc,2024-06-24 11:34:07.641510010,-8.0,-63.0,12.0
1904-01-01 00:12:34.731600010,E4_Acc,2024-06-24 11:34:07.672760010,-8.0,-63.0,12.0
1904-01-01 00:12:34.762850010,E4_Acc,2024-06-24 11:34:07.704010010,-9.0,-63.0,12.0
1904-01-01 00:12:34.794100010,E4_Acc,2024-06-24 11:34:07.735260010,-8.0,-63.0,11.0
1904-01-01 00:12:34.825350010,E4_Acc,2024-06-24 11:34:07.766510010,-9.0,-64.0,12.0
1904-01-01 00:12:34.856610023,E4_Acc,2024-06-24 11:34:07.797770023,-8.0,-63.0,12.0
1904-01-01 00:12:34.887860023,E4_Acc,2024-06-24 11:34:07.829020023,-8.0,-63.0,12.0
1904-01-01 00:12:34.919110023,E4_Acc,2024-06-24 11:34:07.860270023,-9.0,-63.0,12.0
1904-01-01 00:12:34.950360023,E4_Acc,2024-06-24 11:34:07.891520023,-9.0,-63.0,12.0
1904-01-01 00:12:34.981610023,E4_Acc,2024-06-24 11:34:07.922770023,-8.0,-63.0,12.0
1904-01-01 00:12:35.012860023,E4_Acc,2024-06-24 11:34:07.954020023,-8.0,-63.0,12.0
1904-01-01 00:12:35.044110023,E4_Acc,2024-06-24 11:34:07.985270023,-8.0,-63.0,12.0
1904-01-01 00:12:35.075370037,E4_Acc,2024-06-24 11:34:08.016530037,-8.0,-63.0,12.0
1904-01-01 00:12:35.106620037,E4_Acc,2024-06-24 11:34:08.047780037,-8.0,-63.0,12.0
1904-01-01 00:12:35.137870037,E4_Acc,2024-06-24 11:34:08.079030037,-9.0,-63.0,12.0
1904-01-01 00:12:35.169120037,E4_Acc,2024-06-24 11:34:08.110280037,-9.0,-63.0,12.0
1904-01-01 00:12:35.200370037,E4_Acc,2024-06-24 11:34:08.141530037,-8.0,-63.0,12.0
1904-01-01 00:12:35.231620037,E4_Acc,2024-06-24 11:34:08.172780037,-8.0,-63.0,12.0
1904-01-01 00:12:35.262870037,E4_Acc,2024-06-24 11:34:08.204030037,-8.0,-63.0,12.0
1904-01-01 00:12:35.294130051,E4_Acc,2024-06-24 11:34:08.235290051,-8.0,-63.0,12.0
1904-01-01 00:12:35.325380051,E4_Acc,2024-06-24 11:34:08.266540051,-8.0,-63.0,12.0
1904-01-01 00:12:35.356630051,E4_Acc,2024-06-24 11:34:08.297790051,-8.0,-63.0,11.0
1904-01-01 00:12:35.387880051,E4_Acc,2024-06-24 11:34:08.329040051,-8.0,-63.0,12.0
1904-01-01 00:12:35.419130051,E4_Acc,2024-06-24 11:34:08.360290051,-8.0,-63.0,11.0
1904-01-01 00:12:35.450380051,E4_Acc,2024-06-24 11:34:08.391540051,-8.0,-64.0,12.0
1904-01-01 00:12:35.481630051,E4_Acc,2024-06-24 11:34:08.422790051,-8.0,-63.0,12.0
1904-01-01 00:12:35.512890064,E4_Acc,2024-06-24 11:34:08.454050064,-8.0,-63.0,12.0
1904-01-01 00:12:35.544140064,E4_Acc,2024-06-24 11:34:08.485300064,-8.0,-63.0,12.0
1904-01-01 00:12:35.575390064,E4_Acc,2024-06-24 11:34:08.516550064,-8.0,-63.0,12.0
1904-01-01 00:12:35.606640064,E4_Acc,2024-06-24 11:34:08.547800064,-8.0,-63.0,11.0
1904-01-01 00:12:35.637890064,E4_Acc,2024-06-24 11:34:08.579050064,-8.0,-63.0,11.0
1904-01-01 00:12:35.669140064,E4_Acc,2024-06-24 11:34:08.610300064,-8.0,-63.0,12.0
1904-01-01 00:12:35.700390064,E4_Acc,2024-06-24 11:34:08.641550064,-8.0,-63.0,12.0
1904-01-01 00:12:35.731650078,E4_Acc,2024-06-24 11:34:08.672810078,-9.0,-63.0,12.0
1904-01-01 00:12:35.762900078,E4_Acc,2024-06-24 11:34:08.704060078,-9.0,-63.0,12.0
1904-01-01 00:12:35.794150078,E4_Acc,2024-06-24 11:34:08.735310078,-8.0,-63.0,12.0
1904-01-01 00:12:35.825400078,E4_Acc,2024-06-24 11:34:08.766560078,-9.0,-63.0,12.0
1904-01-01 00:12:35.856650078,E4_Acc,2024-06-24 11:34:08.797810078,-8.0,-63.0,12.0
1904-01-01 00:12:35.887900078,E4_Acc,2024-06-24 11:34:08.829060078,-8.0,-63.0,11.0
1904-01-01 00:12:35.919150078,E4_Acc,2024-06-24 11:34:08.860310078,-8.0,-63.0,11.0
1904-01-01 00:12:35.950410091,E4_Acc,2024-06-24 11:34:08.891570091,-8.0,-63.0,12.0
1904-01-01 00:12:35.981660091,E4_Acc,2024-06-24 11:34:08.922820091,-8.0,-64.0,11.0
1904-01-01 00:12:36.012910091,E4_Acc,2024-06-24 11:34:08.954070091,-8.0,-64.0,12.0
1904-01-01 00:12:36.044160091,E4_Acc,2024-06-24 11:34:08.985320091,-8.0,-64.0,12.0
1904-01-01 00:12:36.075410090,E4_Acc,2024-06-24 11:34:09.016570090,-8.0,-64.0,12.0
1904-01-01 00:12:36.106660091,E4_Acc,2024-06-24 11:34:09.047820091,-8.0,-63.0,11.0
1904-01-01 00:12:36.137920105,E4_Acc,2024-06-24 11:34:09.079080105,-8.0,-63.0,11.0
1904-01-01 00:12:36.169170105,E4_Acc,2024-06-24 11:34:09.110330105,-8.0,-63.0,11.0
1904-01-01 00:12:36.200420105,E4_Acc,2024-06-24 11:34:09.141580105,-8.0,-63.0,11.0
1904-01-01 00:12:36.231670105,E4_Acc,2024-06-24 11:34:09.172830105,-8.0,-63.0,11.0
1904-01-01 00:12:36.262920105,E4_Acc,2024-06-24 11:34:09.204080105,-8.0,-63.0,12.0
1904-01-01 00:12:36.294170105,E4_Acc,2024-06-24 11:34:09.235330105,-8.0,-63.0,12.0
1904-01-01 00:12:36.325420105,E4_Acc,2024-06-24 11:34:09.266580105,-8.0,-63.0,12.0
1904-01-01 00:12:36.356680118,E4_Acc,2024-06-24 11:34:09.297840118,-8.0,-63.0,12.0
1904-01-01 00:12:36.387930118,E4_Acc,2024-06-24 11:34:09.329090118,-9.0,-63.0,12.0
1904-01-01 00:12:36.419180118,E4_Acc,2024-06-24 11:34:09.360340118,-9.0,-63.0,12.0
1904-01-01 00:12:36.450430118,E4_Acc,2024-06-24 11:34:09.391590118,-9.0,-63.0,12.0
1904-01-01 00:12:36.481680118,E4_Acc,2024-06-24 11:34:09.422840118,-9.0,-63.0,12.0
1904-01-01 00:12:36.512930118,E4_Acc,2024-06-24 11:34:09.454090118,-9.0,-63.0,12.0
1904-01-01 00:12:36.544180118,E4_Acc,2024-06-24 11:34:09.485340118,-9.0,-63.0,11.0
1904-01-01 00:12:36.575439893,E4_Acc,2024-06-24 11:34:09.516599893,-8.0,-63.0,12.0
1904-01-01 00:12:36.606689894,E4_Acc,2024-06-24 11:34:09.547849894,-8.0,-63.0,12.0
1904-01-01 00:12:36.637939894,E4_Acc,2024-06-24 11:34:09.579099894,-9.0,-63.0,12.0
1904-01-01 00:12:36.669189894,E4_Acc,2024-06-24 11:34:09.610349894,-8.0,-63.0,12.0
1904-01-01 00:12:36.700439894,E4_Acc,2024-06-24 11:34:09.641599894,-9.0,-64.0,12.0
1904-01-01 00:12:36.731689894,E4_Acc,2024-06-24 11:34:09.672849894,-9.0,-63.0,12.0
1904-01-01 00:12:36.762939894,E4_Acc,2024-06-24 11:34:09.704099894,-9.0,-63.0,12.0
1904-01-01 00:12:36.794199907,E4_Acc,2024-06-24 11:34:09.735359907,-9.0,-63.0,11.0
1904-01-01 00:12:36.825449907,E4_Acc,2024-06-24 11:34:09.766609907,-9.0,-63.0,11.0
1904-01-01 00:12:36.856699907,E4_Acc,2024-06-24 11:34:09.797859907,-8.0,-64.0,11.0
1904-01-01 00:12:36.887949907,E4_Acc,2024-06-24 11:34:09.829109907,-8.0,-63.0,12.0
1904-01-01 00:12:36.919199907,E4_Acc,2024-06-24 11:34:09.860359907,-8.0,-63.0,12.0
1904-01-01 00:12:36.950449907,E4_Acc,2024-06-24 11:34:09.891609907,-8.0,-63.0,12.0
1904-01-01 00:12:36.981699907,E4_Acc,2024-06-24 11:34:09.922859907,-8.0,-63.0,12.0
1904-01-01 00:12:37.012959921,E4_Acc,2024-06-24 11:34:09.954119921,-9.0,-63.0,12.0
1904-01-01 00:12:37.044209921,E4_Acc,2024-06-24 11:34:09.985369921,-9.0,-63.0,12.0
1904-01-01 00:12:37.075459921,E4_Acc,2024-06-24 11:34:10.016619921,-9.0,-63.0,12.0
1904-01-01 00:12:37.106709921,E4_Acc,2024-06-24 11:34:10.047869921,-9.0,-63.0,12.0
1904-01-01 00:12:37.137959921,E4_Acc,2024-06-24 11:34:10.079119921,-9.0,-63.0,12.0
1904-01-01 00:12:37.169209921,E4_Acc,2024-06-24 11:34:10.110369921,-8.0,-63.0,12.0
1904-01-01 00:12:37.200459921,E4_Acc,2024-06-24 11:34:10.141619921,-8.0,-63.0,12.0
1904-01-01 00:12:37.231719934,E4_Acc,2024-06-24 11:34:10.172879934,-8.0,-63.0,12.0
1904-01-01 00:12:37.262969934,E4_Acc,2024-06-24 11:34:10.204129934,-8.0,-63.0,12.0
1904-01-01 00:12:37.294219934,E4_Acc,2024-06-24 11:34:10.235379934,-8.0,-63.0,12.0
1904-01-01 00:12:37.325469934,E4_Acc,2024-06-24 11:34:10.266629934,-8.0,-63.0,12.0
1904-01-01 00:12:37.356719934,E4_Acc,2024-06-24 11:34:10.297879934,-9.0,-63.0,12.0
1904-01-01 00:12:37.387969934,E4_Acc,2024-06-24 11:34:10.329129934,-8.0,-63.0,12.0
1904-01-01 00:12:37.419219934,E4_Acc,2024-06-24 11:34:10.360379934,-8.0,-63.0,12.0
1904-01-01 00:12:37.450479948,E4_Acc,2024-06-24 11:34:10.391639948,-8.0,-63.0,12.0
1904-01-01 00:12:37.481729948,E4_Acc,2024-06-24 11:34:10.422889948,-9.0,-63.0,13.0
1904-01-01 00:12:37.512979948,E4_Acc,2024-06-24 11:34:10.454139948,-8.0,-63.0,13.0
1904-01-01 00:12:37.544229948,E4_Acc,2024-06-24 11:34:10.485389948,-9.0,-63.0,12.0
1904-01-01 00:12:37.575479948,E4_Acc,2024-06-24 11:34:10.516639948,-9.0,-63.0,12.0
1904-01-01 00:12:37.606729948,E4_Acc,2024-06-24 11:34:10.547889948,-9.0,-63.0,12.0
1904-01-01 00:12:37.637979948,E4_Acc,2024-06-24 11:34:10.579139948,-9.0,-63.0,12.0
1904-01-01 00:12:37.669239961,E4_Acc,2024-06-24 11:34:10.610399961,-9.0,-63.0,12.0
1904-01-01 00:12:37.700489961,E4_Acc,2024-06-24 11:34:10.641649961,-8.0,-63.0,12.0
1904-01-01 00:12:37.731739961,E4_Acc,2024-06-24 11:34:10.672899961,-9.0,-64.0,12.0
1904-01-01 00:12:37.762989961,E4_Acc,2024-06-24 11:34:10.704149961,-9.0,-64.0,12.0
1904-01-01 00:12:37.794239961,E4_Acc,2024-06-24 11:34:10.735399961,-8.0,-63.0,13.0
1904-01-01 00:12:37.825489961,E4_Acc,2024-06-24 11:34:10.766649961,-9.0,-63.0,12.0
1904-01-01 00:12:37.856739961,E4_Acc,2024-06-24 11:34:10.797899961,-8.0,-63.0,12.0
1904-01-01 00:12:37.887999975,E4_Acc,2024-06-24 11:34:10.829159975,-8.0,-63.0,12.0
1904-01-01 00:12:37.919249975,E4_Acc,2024-06-24 11:34:10.860409975,-8.0,-63.0,12.0
1904-01-01 00:12:37.950499975,E4_Acc,2024-06-24 11:34:10.891659975,-9.0,-63.0,12.0
1904-01-01 00:12:37.981749975,E4_Acc,2024-06-24 11:34:10.922909975,-8.0,-63.0,12.0
1904-01-01 00:12:38.012999975,E4_Acc,2024-06-24 11:34:10.954159975,-8.0,-64.0,12.0
1904-01-01 00:12:38.044249975,E4_Acc,2024-06-24 11:34:10.985409975,-8.0,-64.0,12.0
1904-01-01 00:12:38.075499975,E4_Acc,2024-06-24 11:34:11.016659975,-8.0,-63.0,13.0
1904-01-01 00:12:38.106759989,E4_Acc,2024-06-24 11:34:11.047919989,-8.0,-63.0,12.0
1904-01-01 00:12:38.138009989,E4_Acc,2024-06-24 11:34:11.079169989,-8.0,-63.0,12.0
1904-01-01 00:12:38.169259989,E4_Acc,2024-06-24 11:34:11.110419989,-8.0,-63.0,12.0
1904-01-01 00:12:38.200509989,E4_Acc,2024-06-24 11:34:11.141669989,-8.0,-63.0,12.0
1904-01-01 00:12:38.231759989,E4_Acc,2024-06-24 11:34:11.172919989,-8.0,-63.0,12.0
1904-01-01 00:12:38.263009989,E4_Acc,2024-06-24 11:34:11.204169989,-8.0,-63.0,12.0
1904-01-01 00:12:38.294270002,E4_Acc,2024-06-24 11:34:11.235430002,-8.0,-63.0,12.0
1904-01-01 00:12:38.325520002,E4_Acc,2024-06-24 11:34:11.266680002,-8.0,-63.0,12.0
1904-01-01 00:12:38.356770002,E4_Acc,2024-06-24 11:34:11.297930002,-8.0,-64.0,13.0
1904-01-01 00:12:38.388020002,E4_Acc,2024-06-24 11:34:11.329180002,-8.0,-63.0,13.0
1904-01-01 00:12:38.419270002,E4_Acc,2024-06-24 11:34:11.360430002,-8.0,-63.0,13.0
1904-01-01 00:12:38.450520002,E4_Acc,2024-06-24 11:34:11.391680002,-8.0,-63.0,12.0
1904-01-01 00:12:38.481770002,E4_Acc,2024-06-24 11:34:11.422930002,-8.0,-64.0,12.0
1904-01-01 00:12:38.513030016,E4_Acc,2024-06-24 11:34:11.454190016,-9.0,-63.0,12.0
1904-01-01 00:12:38.544280016,E4_Acc,2024-06-24 11:34:11.485440016,-8.0,-63.0,12.0
1904-01-01 00:12:38.575530016,E4_Acc,2024-06-24 11:34:11.516690016,-8.0,-63.0,13.0
1904-01-01 00:12:38.606780016,E4_Acc,2024-06-24 11:34:11.547940016,-8.0,-63.0,12.0
1904-01-01 00:12:38.638030016,E4_Acc,2024-06-24 11:34:11.579190016,-8.0,-63.0,12.0
1904-01-01 00:12:38.669280016,E4_Acc,2024-06-24 11:34:11.610440016,-8.0,-63.0,12.0
1904-01-01 00:12:38.700530016,E4_Acc,2024-06-24 11:34:11.641690016,-8.0,-64.0,12.0
1904-01-01 00:12:38.731790029,E4_Acc,2024-06-24 11:34:11.672950029,-8.0,-63.0,12.0
1904-01-01 00:12:38.763040029,E4_Acc,2024-06-24 11:34:11.704200029,-8.0,-63.0,13.0
1904-01-01 00:12:38.794290029,E4_Acc,2024-06-24 11:34:11.735450029,-8.0,-63.0,13.0
1904-01-01 00:12:38.825540029,E4_Acc,2024-06-24 11:34:11.766700029,-8.0,-63.0,12.0
1904-01-01 00:12:38.856790029,E4_Acc,2024-06-24 11:34:11.797950029,-8.0,-63.0,12.0
1904-01-01 00:12:38.888040029,E4_Acc,2024-06-24 11:34:11.829200029,-8.0,-63.0,12.0
1904-01-01 00:12:38.919290029,E4_Acc,2024-06-24 11:34:11.860450029,-8.0,-63.0,12.0
1904-01-01 00:12:38.950550043,E4_Acc,2024-06-24 11:34:11.891710043,-8.0,-63.0,12.0
1904-01-01 00:12:38.981800043,E4_Acc,2024-06-24 11:34:11.922960043,-8.0,-63.0,12.0
1904-01-01 00:12:39.013050043,E4_Acc,2024-06-24 11:34:11.954210043,-8.0,-63.0,12.0
1904-01-01 00:12:39.044300043,E4_Acc,2024-06-24 11:34:11.985460043,-8.0,-63.0,12.0
1904-01-01 00:12:39.075550043,E4_Acc,2024-06-24 11:34:12.016710043,-8.0,-63.0,12.0
1904-01-01 00:12:39.106800043,E4_Acc,2024-06-24 11:34:12.047960043,-8.0,-63.0,13.0
1904-01-01 00:12:39.138050043,E4_Acc,2024-06-24 11:34:12.079210043,-8.0,-63.0,12.0
1904-01-01 00:12:39.169310057,E4_Acc,2024-06-24 11:34:12.110470057,-8.0,-63.0,12.0
1904-01-01 00:12:39.200560057,E4_Acc,2024-06-24 11:34:12.141720057,-8.0,-63.0,12.0
1904-01-01 00:12:39.231810057,E4_Acc,2024-06-24 11:34:12.172970057,-8.0,-63.0,12.0
1904-01-01 00:12:39.263060057,E4_Acc,2024-06-24 11:34:12.204220057,-8.0,-63.0,12.0
1904-01-01 00:12:39.294310057,E4_Acc,2024-06-24 11:34:12.235470057,-8.0,-63.0,13.0
1904-01-01 00:12:39.325560057,E4_Acc,2024-06-24 11:34:12.266720057,-8.0,-63.0,12.0
1904-01-01 00:12:39.356810057,E4_Acc,2024-06-24 11:34:12.297970057,-9.0,-64.0,12.0
1904-01-01 00:12:39.388070070,E4_Acc,2024-06-24 11:34:12.329230070,-9.0,-64.0,12.0
1904-01-01 00:12:39.419320070,E4_Acc,2024-06-24 11:34:12.360480070,-8.0,-63.0,12.0
1904-01-01 00:12:39.450570070,E4_Acc,2024-06-24 11:34:12.391730070,-8.0,-63.0,13.0
1904-01-01 00:12:39.481820070,E4_Acc,2024-06-24 11:34:12.422980070,-8.0,-63.0,13.0
1904-01-01 00:12:39.513070070,E4_Acc,2024-06-24 11:34:12.454230070,-8.0,-63.0,13.0
1904-01-01 00:12:39.544320070,E4_Acc,2024-06-24 11:34:12.485480070,-8.0,-63.0,12.0
1904-01-01 00:12:39.575570070,E4_Acc,2024-06-24 11:34:12.516730070,-8.0,-63.0,12.0
1904-01-01 00:12:39.606830084,E4_Acc,2024-06-24 11:34:12.547990084,-8.0,-63.0,12.0
1904-01-01 00:12:39.638080084,E4_Acc,2024-06-24 11:34:12.579240084,-8.0,-63.0,12.0
1904-01-01 00:12:39.669330084,E4_Acc,2024-06-24 11:34:12.610490084,-8.0,-63.0,12.0
1904-01-01 00:12:39.700580084,E4_Acc,2024-06-24 11:34:12.641740084,-9.0,-64.0,12.0
1904-01-01 00:12:39.731830084,E4_Acc,2024-06-24 11:34:12.672990084,-8.0,-64.0,12.0
1904-01-01 00:12:39.763080084,E4_Acc,2024-06-24 11:34:12.704240084,-8.0,-63.0,12.0
1904-01-01 00:12:39.794330084,E4_Acc,2024-06-24 11:34:12.735490084,-8.0,-63.0,12.0
1904-01-01 00:12:39.825590097,E4_Acc,2024-06-24 11:34:12.766750097,-8.0,-63.0,12.0
1904-01-01 00:12:39.856840097,E4_Acc,2024-06-24 11:34:12.798000097,-8.0,-63.0,12.0
1904-01-01 00:12:39.888090097,E4_Acc,2024-06-24 11:34:12.829250097,-8.0,-63.0,12.0
1904-01-01 00:12:39.919340097,E4_Acc,2024-06-24 11:34:12.860500097,-8.0,-63.0,12.0
1904-01-01 00:12:39.950590097,E4_Acc,2024-06-24 11:34:12.891750097,-8.0,-63.0,12.0
1904-01-01 00:12:39.981840097,E4_Acc,2024-06-24 11:34:12.923000097,-9.0,-63.0,12.0
1904-01-01 00:12:40.013090097,E4_Acc,2024-06-24 11:34:12.954250097,-8.0,-63.0,12.0
1904-01-01 00:12:40.044350111,E4_Acc,2024-06-24 11:34:12.985510111,-8.0,-63.0,12.0
1904-01-01 00:12:40.075600111,E4_Acc,2024-06-24 11:34:13.016760111,-8.0,-63.0,12.0
1904-01-01 00:12:40.106850111,E4_Acc,2024-06-24 11:34:13.048010111,-8.0,-63.0,12.0
1904-01-01 00:12:40.138100111,E4_Acc,2024-06-24 11:34:13.079260111,-8.0,-63.0,12.0
1904-01-01 00:12:40.169350111,E4_Acc,2024-06-24 11:34:13.110510111,-8.0,-64.0,12.0
1904-01-01 00:12:40.200600111,E4_Acc,2024-06-24 11:34:13.141760111,-8.0,-63.0,12.0
1904-01-01 00:12:40.231850111,E4_Acc,2024-06-24 11:34:13.173010111,-8.0,-63.0,12.0
1904-01-01 00:12:40.263109886,E4_Acc,2024-06-24 11:34:13.204269886,-8.0,-63.0,12.0
1904-01-01 00:12:40.294359886,E4_Acc,2024-06-24 11:34:13.235519886,-8.0,-63.0,11.0
1904-01-01 00:12:40.325609886,E4_Acc,2024-06-24 11:34:13.266769886,-8.0,-63.0,12.0
1904-01-01 00:12:40.356859886,E4_Acc,2024-06-24 11:34:13.298019886,-8.0,-63.0,12.0
1904-01-01 00:12:40.388109886,E4_Acc,2024-06-24 11:34:13.329269886,-9.0,-63.0,12.0
1904-01-01 00:12:40.419359886,E4_Acc,2024-06-24 11:34:13.360519886,-9.0,-63.0,12.0
1904-01-01 00:12:40.450609886,E4_Acc,2024-06-24 11:34:13.391769886,-9.0,-63.0,12.0
1904-01-01 00:12:40.481869900,E4_Acc,2024-06-24 11:34:13.423029900,-9.0,-63.0,12.0
1904-01-01 00:12:40.513119900,E4_Acc,2024-06-24 11:34:13.454279900,-8.0,-63.0,12.0
1904-01-01 00:12:40.544369900,E4_Acc,2024-06-24 11:34:13.485529900,-8.0,-63.0,12.0
1904-01-01 00:12:40.575619899,E4_Acc,2024-06-24 11:34:13.516779899,-9.0,-63.0,12.0
1904-01-01 00:12:40.606869900,E4_Acc,2024-06-24 11:34:13.548029900,-9.0,-63.0,12.0
1904-01-01 00:12:40.638119900,E4_Acc,2024-06-24 11:34:13.579279900,-8.0,-63.0,12.0
1904-01-01 00:12:40.669369900,E4_Acc,2024-06-24 11:34:13.610529900,-9.0,-63.0,12.0
1904-01-01 00:12:40.700629913,E4_Acc,2024-06-24 11:34:13.641789913,-9.0,-63.0,12.0
1904-01-01 00:12:40.731879913,E4_Acc,2024-06-24 11:34:13.673039913,-9.0,-63.0,12.0
1904-01-01 00:12:40.763129913,E4_Acc,2024-06-24 11:34:13.704289913,-9.0,-63.0,12.0
1904-01-01 00:12:40.794379913,E4_Acc,2024-06-24 11:34:13.735539913,-9.0,-63.0,12.0
1904-01-01 00:12:40.825629913,E4_Acc,2024-06-24 11:34:13.766789913,-9.0,-63.0,12.0
1904-01-01 00:12:40.856879913,E4_Acc,2024-06-24 11:34:13.798039913,-9.0,-64.0,12.0
1904-01-01 00:12:40.888129913,E4_Acc,2024-06-24 11:34:13.829289913,-9.0,-63.0,12.0
1904-01-01 00:12:40.919389927,E4_Acc,2024-06-24 11:34:13.860549927,-9.0,-63.0,12.0
1904-01-01 00:12:40.950639927,E4_Acc,2024-06-24 11:34:13.891799927,-9.0,-63.0,12.0
1904-01-01 00:12:40.981889927,E4_Acc,2024-06-24 11:34:13.923049927,-9.0,-63.0,12.0
1904-01-01 00:12:41.013139927,E4_Acc,2024-06-24 11:34:13.954299927,-9.0,-63.0,12.0
1904-01-01 00:12:41.044389927,E4_Acc,2024-06-24 11:34:13.985549927,-9.0,-63.0,12.0
1904-01-01 00:12:41.075639927,E4_Acc,2024-06-24 11:34:14.016799927,-9.0,-63.0,12.0
1904-01-01 00:12:41.106899940,E4_Acc,2024-06-24 11:34:14.048059940,-9.0,-63.0,12.0
1904-01-01 00:12:41.138149940,E4_Acc,2024-06-24 11:34:14.079309940,-9.0,-63.0,12.0
1904-01-01 00:12:41.169399940,E4_Acc,2024-06-24 11:34:14.110559940,-9.0,-63.0,12.0
1904-01-01 00:12:41.200649940,E4_Acc,2024-06-24 11:34:14.141809940,-9.0,-63.0,12.0
1904-01-01 00:12:41.231899940,E4_Acc,2024-06-24 11:34:14.173059940,-9.0,-63.0,12.0
1904-01-01 00:12:41.263149940,E4_Acc,2024-06-24 11:34:14.204309940,-9.0,-63.0,12.0
1904-01-01 00:12:41.294399940,E4_Acc,2024-06-24 11:34:14.235559940,-9.0,-63.0,12.0
1904-01-01 00:12:41.325659954,E4_Acc,2024-06-24 11:34:14.266819954,-9.0,-63.0,12.0
1904-01-01 00:12:41.356909954,E4_Acc,2024-06-24 11:34:14.298069954,-9.0,-63.0,12.0
1904-01-01 00:12:41.388159954,E4_Acc,2024-06-24 11:34:14.329319954,-8.0,-63.0,12.0
1904-01-01 00:12:41.419409954,E4_Acc,2024-06-24 11:34:14.360569954,-8.0,-63.0,12.0
1904-01-01 00:12:41.450659954,E4_Acc,2024-06-24 11:34:14.391819954,-8.0,-63.0,11.0
1904-01-01 00:12:41.481909954,E4_Acc,2024-06-24 11:34:14.423069954,-8.0,-63.0,12.0
1904-01-01 00:12:41.513159954,E4_Acc,2024-06-24 11:34:14.454319954,-8.0,-63.0,12.0
1904-01-01 00:12:41.544419967,E4_Acc,2024-06-24 11:34:14.485579967,-8.0,-63.0,12.0
1904-01-01 00:12:41.575669966,E4_Acc,2024-06-24 11:34:14.516829966,-9.0,-64.0,12.0
1904-01-01 00:12:41.606919967,E4_Acc,2024-06-24 11:34:14.548079967,-9.0,-63.0,12.0
1904-01-01 00:12:41.638169967,E4_Acc,2024-06-24 11:34:14.579329967,-8.0,-63.0,12.0
1904-01-01 00:12:41.669419967,E4_Acc,2024-06-24 11:34:14.610579967,-9.0,-63.0,11.0
1904-01-01 00:12:41.700669967,E4_Acc,2024-06-24 11:34:14.641829967,-9.0,-63.0,12.0
1904-01-01 00:12:41.731919967,E4_Acc,2024-06-24 11:34:14.673079967,-9.0,-64.0,12.0
1904-01-01 00:12:41.763179981,E4_Acc,2024-06-24 11:34:14.704339981,-9.0,-64.0,12.0
1904-01-01 00:12:41.794429981,E4_Acc,2024-06-24 11:34:14.735589981,-9.0,-64.0,13.0
1904-01-01 00:12:41.825679981,E4_Acc,2024-06-24 11:34:14.766839981,-8.0,-63.0,13.0
1904-01-01 00:12:41.856929981,E4_Acc,2024-06-24 11:34:14.798089981,-9.0,-63.0,13.0
1904-01-01 00:12:41.888179981,E4_Acc,2024-06-24 11:34:14.829339981,-9.0,-63.0,12.0
1904-01-01 00:12:41.919429981,E4_Acc,2024-06-24 11:34:14.860589981,-9.0,-63.0,12.0
1904-01-01 00:12:41.950679981,E4_Acc,2024-06-24 11:34:14.891839981,-10.0,-63.0,12.0
1904-01-01 00:12:41.981939995,E4_Acc,2024-06-24 11:34:14.923099995,-10.0,-62.0,13.0
1904-01-01 00:12:42.013189995,E4_Acc,2024-06-24 11:34:14.954349995,-9.0,-62.0,13.0
1904-01-01 00:12:42.044439995,E4_Acc,2024-06-24 11:34:14.985599995,-9.0,-62.0,12.0
1904-01-01 00:12:42.075689995,E4_Acc,2024-06-24 11:34:15.016849995,-10.0,-62.0,11.0
1904-01-01 00:12:42.106939995,E4_Acc,2024-06-24 11:34:15.048099995,-10.0,-61.0,11.0
1904-01-01 00:12:42.138189995,E4_Acc,2024-06-24 11:34:15.079349995,-10.0,-63.0,11.0
1904-01-01 00:12:42.169439995,E4_Acc,2024-06-24 11:34:15.110599995,-11.0,-63.0,11.0
1904-01-01 00:12:42.200700008,E4_Acc,2024-06-24 11:34:15.141860008,-9.0,-61.0,11.0
1904-01-01 00:12:42.231950008,E4_Acc,2024-06-24 11:34:15.173110008,-7.0,-61.0,13.0
1904-01-01 00:12:42.263200008,E4_Acc,2024-06-24 11:34:15.204360008,-5.0,-62.0,16.0
1904-01-01 00:12:42.294450008,E4_Acc,2024-06-24 11:34:15.235610008,0.0,-63.0,23.0
1904-01-01 00:12:42.325700007,E4_Acc,2024-06-24 11:34:15.266860007,-7.0,-63.0,21.0
1904-01-01 00:12:42.356950008,E4_Acc,2024-06-24 11:34:15.298110008,-13.0,-65.0,15.0
1904-01-01 00:12:42.388200008,E4_Acc,2024-06-24 11:34:15.329360008,-11.0,-65.0,13.0
1904-01-01 00:12:42.419460022,E4_Acc,2024-06-24 11:34:15.360620022,-10.0,-65.0,14.0
1904-01-01 00:12:42.450710022,E4_Acc,2024-06-24 11:34:15.391870022,-10.0,-64.0,16.0
1904-01-01 00:12:42.481960022,E4_Acc,2024-06-24 11:34:15.423120022,-11.0,-64.0,19.0
1904-01-01 00:12:42.513210022,E4_Acc,2024-06-24 11:34:15.454370022,-16.0,-64.0,19.0
1904-01-01 00:12:42.544460022,E4_Acc,2024-06-24 11:34:15.485620022,-12.0,-61.0,15.0
1904-01-01 00:12:42.575710022,E4_Acc,2024-06-24 11:34:15.516870022,-10.0,-61.0,13.0
1904-01-01 00:12:42.606960022,E4_Acc,2024-06-24 11:34:15.548120022,-8.0,-61.0,13.0
1904-01-01 00:12:42.638220035,E4_Acc,2024-06-24 11:34:15.579380035,-8.0,-63.0,15.0
1904-01-01 00:12:42.669470035,E4_Acc,2024-06-24 11:34:15.610630035,-10.0,-66.0,16.0
1904-01-01 00:12:42.700720035,E4_Acc,2024-06-24 11:34:15.641880035,-8.0,-68.0,17.0
1904-01-01 00:12:42.731970035,E4_Acc,2024-06-24 11:34:15.673130035,-7.0,-68.0,16.0
1904-01-01 00:12:42.763220035,E4_Acc,2024-06-24 11:34:15.704380035,-4.0,-63.0,15.0
1904-01-01 00:12:42.794470035,E4_Acc,2024-06-24 11:34:15.735630035,-2.0,-59.0,15.0
1904-01-01 00:12:42.825720035,E4_Acc,2024-06-24 11:34:15.766880035,-3.0,-58.0,13.0
1904-01-01 00:12:42.856980049,E4_Acc,2024-06-24 11:34:15.798140049,-7.0,-59.0,11.0
1904-01-01 00:12:42.888230049,E4_Acc,2024-06-24 11:34:15.829390049,-8.0,-61.0,10.0
1904-01-01 00:12:42.919480049,E4_Acc,2024-06-24 11:34:15.860640049,-10.0,-62.0,10.0
1904-01-01 00:12:42.950730049,E4_Acc,2024-06-24 11:34:15.891890049,-11.0,-61.0,11.0
1904-01-01 00:12:42.981980049,E4_Acc,2024-06-24 11:34:15.923140049,-10.0,-62.0,12.0
1904-01-01 00:12:43.013230049,E4_Acc,2024-06-24 11:34:15.954390049,-10.0,-62.0,14.0
1904-01-01 00:12:43.044480049,E4_Acc,2024-06-24 11:34:15.985640049,-9.0,-62.0,14.0
1904-01-01 00:12:43.075740063,E4_Acc,2024-06-24 11:34:16.016900063,-9.0,-61.0,13.0
1904-01-01 00:12:43.106990063,E4_Acc,2024-06-24 11:34:16.048150063,-10.0,-60.0,12.0
1904-01-01 00:12:43.138240063,E4_Acc,2024-06-24 11:34:16.079400063,-10.0,-61.0,12.0
1904-01-01 00:12:43.169490063,E4_Acc,2024-06-24 11:34:16.110650063,-11.0,-65.0,12.0
1904-01-01 00:12:43.200740063,E4_Acc,2024-06-24 11:34:16.141900063,-9.0,-68.0,13.0
1904-01-01 00:12:43.231990063,E4_Acc,2024-06-24 11:34:16.173150063,-8.0,-67.0,13.0
1904-01-01 00:12:43.263250076,E4_Acc,2024-06-24 11:34:16.204410076,-7.0,-63.0,13.0
1904-01-01 00:12:43.294500076,E4_Acc,2024-06-24 11:34:16.235660076,-7.0,-63.0,12.0
1904-01-01 00:12:43.325750076,E4_Acc,2024-06-24 11:34:16.266910076,-7.0,-61.0,11.0
1904-01-01 00:12:43.357000076,E4_Acc,2024-06-24 11:34:16.298160076,-7.0,-62.0,11.0
1904-01-01 00:12:43.388250076,E4_Acc,2024-06-24 11:34:16.329410076,-8.0,-62.0,10.0
1904-01-01 00:12:43.419500076,E4_Acc,2024-06-24 11:34:16.360660076,-10.0,-64.0,10.0
1904-01-01 00:12:43.450750076,E4_Acc,2024-06-24 11:34:16.391910076,-10.0,-65.0,11.0
1904-01-01 00:12:43.482010090,E4_Acc,2024-06-24 11:34:16.423170090,-10.0,-65.0,12.0
1904-01-01 00:12:43.513260090,E4_Acc,2024-06-24 11:34:16.454420090,-10.0,-65.0,12.0
1904-01-01 00:12:43.544510090,E4_Acc,2024-06-24 11:34:16.485670090,-10.0,-65.0,13.0
1904-01-01 00:12:43.575760090,E4_Acc,2024-06-24 11:34:16.516920090,-10.0,-65.0,12.0
1904-01-01 00:12:43.607010090,E4_Acc,2024-06-24 11:34:16.548170090,-11.0,-65.0,12.0
1904-01-01 00:12:43.638260090,E4_Acc,2024-06-24 11:34:16.579420090,-10.0,-64.0,12.0
1904-01-01 00:12:43.669510090,E4_Acc,2024-06-24 11:34:16.610670090,-10.0,-63.0,12.0
1904-01-01 00:12:43.700770103,E4_Acc,2024-06-24 11:34:16.641930103,-10.0,-62.0,11.0
1904-01-01 00:12:43.732020103,E4_Acc,2024-06-24 11:34:16.673180103,-9.0,-63.0,11.0
1904-01-01 00:12:43.763270103,E4_Acc,2024-06-24 11:34:16.704430103,-9.0,-63.0,11.0
1904-01-01 00:12:43.794520103,E4_Acc,2024-06-24 11:34:16.735680103,-8.0,-63.0,10.0
1904-01-01 00:12:43.825770103,E4_Acc,2024-06-24 11:34:16.766930103,-9.0,-64.0,10.0
1904-01-01 00:12:43.857020103,E4_Acc,2024-06-24 11:34:16.798180103,-9.0,-64.0,10.0
1904-01-01 00:12:43.888270103,E4_Acc,2024-06-24 11:34:16.829430103,-8.0,-63.0,10.0
1904-01-01 00:12:43.919530117,E4_Acc,2024-06-24 11:34:16.860690117,-8.0,-63.0,10.0
1904-01-01 00:12:43.950780117,E4_Acc,2024-06-24 11:34:16.891940117,-8.0,-61.0,9.0
1904-01-01 00:12:43.982030117,E4_Acc,2024-06-24 11:34:16.923190117,-8.0,-63.0,9.0
1904-01-01 00:12:44.013280117,E4_Acc,2024-06-24 11:34:16.954440117,-9.0,-63.0,9.0
1904-01-01 00:12:44.044530117,E4_Acc,2024-06-24 11:34:16.985690117,-9.0,-63.0,10.0
1904-01-01 00:12:44.075780117,E4_Acc,2024-06-24 11:34:17.016940117,-9.0,-63.0,10.0
1904-01-01 00:12:44.107030117,E4_Acc,2024-06-24 11:34:17.048190117,-9.0,-64.0,11.0
1904-01-01 00:12:44.138289892,E4_Acc,2024-06-24 11:34:17.079449892,-9.0,-63.0,12.0
1904-01-01 00:12:44.169539892,E4_Acc,2024-06-24 11:34:17.110699892,-9.0,-63.0,11.0
1904-01-01 00:12:44.200789892,E4_Acc,2024-06-24 11:34:17.141949892,-9.0,-64.0,11.0
1904-01-01 00:12:44.232039892,E4_Acc,2024-06-24 11:34:17.173199892,-10.0,-64.0,11.0
1904-01-01 00:12:44.263289892,E4_Acc,2024-06-24 11:34:17.204449892,-10.0,-64.0,11.0
1904-01-01 00:12:44.294539892,E4_Acc,2024-06-24 11:34:17.235699892,-9.0,-64.0,11.0
1904-01-01 00:12:44.325789892,E4_Acc,2024-06-24 11:34:17.266949892,-9.0,-64.0,11.0
1904-01-01 00:12:44.357049906,E4_Acc,2024-06-24 11:34:17.298209906,-10.0,-64.0,11.0
1904-01-01 00:12:44.388299906,E4_Acc,2024-06-24 11:34:17.329459906,-10.0,-64.0,11.0
1904-01-01 00:12:44.419549906,E4_Acc,2024-06-24 11:34:17.360709906,-10.0,-64.0,11.0
1904-01-01 00:12:44.450799906,E4_Acc,2024-06-24 11:34:17.391959906,-10.0,-64.0,11.0
1904-01-01 00:12:44.482049906,E4_Acc,2024-06-24 11:34:17.423209906,-10.0,-63.0,11.0
1904-01-01 00:12:44.513299906,E4_Acc,2024-06-24 11:34:17.454459906,-10.0,-63.0,11.0
1904-01-01 00:12:44.544549906,E4_Acc,2024-06-24 11:34:17.485709906,-10.0,-64.0,11.0
1904-01-01 00:12:44.575809919,E4_Acc,2024-06-24 11:34:17.516969919,-10.0,-63.0,11.0
1904-01-01 00:12:44.607059919,E4_Acc,2024-06-24 11:34:17.548219919,-10.0,-63.0,11.0
1904-01-01 00:12:44.638309919,E4_Acc,2024-06-24 11:34:17.579469919,-10.0,-63.0,11.0
1904-01-01 00:12:44.669559919,E4_Acc,2024-06-24 11:34:17.610719919,-10.0,-63.0,11.0
1904-01-01 00:12:44.700809919,E4_Acc,2024-06-24 11:34:17.641969919,-10.0,-63.0,11.0
1904-01-01 00:12:44.732059919,E4_Acc,2024-06-24 11:34:17.673219919,-10.0,-63.0,11.0
1904-01-01 00:12:44.763309919,E4_Acc,2024-06-24 11:34:17.704469919,-10.0,-63.0,11.0
1904-01-01 00:12:44.794569933,E4_Acc,2024-06-24 11:34:17.735729933,-11.0,-63.0,11.0
1904-01-01 00:12:44.825819933,E4_Acc,2024-06-24 11:34:17.766979933,-10.0,-63.0,11.0
1904-01-01 00:12:44.857069933,E4_Acc,2024-06-24 11:34:17.798229933,-10.0,-63.0,11.0
1904-01-01 00:12:44.888319933,E4_Acc,2024-06-24 11:34:17.829479933,-10.0,-63.0,11.0
1904-01-01 00:12:44.919569933,E4_Acc,2024-06-24 11:34:17.860729933,-10.0,-63.0,11.0
1904-01-01 00:12:44.950819933,E4_Acc,2024-06-24 11:34:17.891979933,-10.0,-63.0,11.0
1904-01-01 00:12:44.982069933,E4_Acc,2024-06-24 11:34:17.923229933,-10.0,-63.0,11.0
1904-01-01 00:12:45.013329946,E4_Acc,2024-06-24 11:34:17.954489946,-10.0,-63.0,11.0
1904-01-01 00:12:45.044579946,E4_Acc,2024-06-24 11:34:17.985739946,-10.0,-63.0,11.0
1904-01-01 00:12:45.075829946,E4_Acc,2024-06-24 11:34:18.016989946,-9.0,-63.0,12.0
1904-01-01 00:12:45.107079946,E4_Acc,2024-06-24 11:34:18.048239946,-10.0,-63.0,12.0
1904-01-01 00:12:45.138329946,E4_Acc,2024-06-24 11:34:18.079489946,-10.0,-63.0,12.0
1904-01-01 00:12:45.169579946,E4_Acc,2024-06-24 11:34:18.110739946,-10.0,-63.0,11.0
1904-01-01 00:12:45.200829946,E4_Acc,2024-06-24 11:34:18.141989946,-10.0,-63.0,11.0
1904-01-01 00:12:45.232089960,E4_Acc,2024-06-24 11:34:18.173249960,-10.0,-63.0,11.0
1904-01-01 00:12:45.263339960,E4_Acc,2024-06-24 11:34:18.204499960,-10.0,-63.0,11.0
1904-01-01 00:12:45.294589960,E4_Acc,2024-06-24 11:34:18.235749960,-10.0,-63.0,12.0
1904-01-01 00:12:45.325839959,E4_Acc,2024-06-24 11:34:18.266999959,-10.0,-63.0,12.0
1904-01-01 00:12:45.357089960,E4_Acc,2024-06-24 11:34:18.298249960,-10.0,-63.0,12.0
1904-01-01 00:12:45.388339960,E4_Acc,2024-06-24 11:34:18.329499960,-10.0,-63.0,12.0
1904-01-01 00:12:45.419589960,E4_Acc,2024-06-24 11:34:18.360749960,-10.0,-63.0,11.0
1904-01-01 00:12:45.450849974,E4_Acc,2024-06-24 11:34:18.392009974,-10.0,-63.0,11.0
1904-01-01 00:12:45.482099974,E4_Acc,2024-06-24 11:34:18.423259974,-10.0,-63.0,11.0
1904-01-01 00:12:45.513349974,E4_Acc,2024-06-24 11:34:18.454509974,-10.0,-63.0,11.0
1904-01-01 00:12:45.544599974,E4_Acc,2024-06-24 11:34:18.485759974,-10.0,-63.0,12.0
1904-01-01 00:12:45.575849974,E4_Acc,2024-06-24 11:34:18.517009974,-9.0,-63.0,12.0
1904-01-01 00:12:45.607099974,E4_Acc,2024-06-24 11:34:18.548259974,-10.0,-63.0,12.0
1904-01-01 00:12:45.638349974,E4_Acc,2024-06-24 11:34:18.579509974,-10.0,-63.0,12.0
1904-01-01 00:12:45.669609987,E4_Acc,2024-06-24 11:34:18.610769987,-10.0,-63.0,12.0
1904-01-01 00:12:45.700859987,E4_Acc,2024-06-24 11:34:18.642019987,-10.0,-63.0,12.0
1904-01-01 00:12:45.732109987,E4_Acc,2024-06-24 11:34:18.673269987,-10.0,-63.0,12.0
1904-01-01 00:12:45.763359987,E4_Acc,2024-06-24 11:34:18.704519987,-10.0,-63.0,12.0
1904-01-01 00:12:45.794609987,E4_Acc,2024-06-24 11:34:18.735769987,-10.0,-63.0,12.0
1904-01-01 00:12:45.825859987,E4_Acc,2024-06-24 11:34:18.767019987,-10.0,-63.0,12.0
1904-01-01 00:12:45.857109987,E4_Acc,2024-06-24 11:34:18.798269987,-9.0,-63.0,12.0
1904-01-01 00:12:45.888370001,E4_Acc,2024-06-24 11:34:18.829530001,-9.0,-63.0,12.0
1904-01-01 00:12:45.919620001,E4_Acc,2024-06-24 11:34:18.860780001,-9.0,-63.0,12.0
1904-01-01 00:12:45.950870001,E4_Acc,2024-06-24 11:34:18.892030001,-9.0,-63.0,12.0
1904-01-01 00:12:45.982120001,E4_Acc,2024-06-24 11:34:18.923280001,-10.0,-63.0,12.0
1904-01-01 00:12:46.013370001,E4_Acc,2024-06-24 11:34:18.954530001,-10.0,-63.0,12.0
1904-01-01 00:12:46.044620001,E4_Acc,2024-06-24 11:34:18.985780001,-10.0,-63.0,12.0
1904-01-01 00:12:46.075880014,E4_Acc,2024-06-24 11:34:19.017040014,-10.0,-63.0,12.0
1904-01-01 00:12:46.107130014,E4_Acc,2024-06-24 11:34:19.048290014,-10.0,-63.0,12.0
1904-01-01 00:12:46.138380014,E4_Acc,2024-06-24 11:34:19.079540014,-10.0,-63.0,11.0
1904-01-01 00:12:46.169630014,E4_Acc,2024-06-24 11:34:19.110790014,-10.0,-63.0,12.0
1904-01-01 00:12:46.200880014,E4_Acc,2024-06-24 11:34:19.142040014,-10.0,-63.0,12.0
1904-01-01 00:12:46.232130014,E4_Acc,2024-06-24 11:34:19.173290014,-10.0,-63.0,13.0
1904-01-01 00:12:46.263380014,E4_Acc,2024-06-24 11:34:19.204540014,-10.0,-63.0,12.0
1904-01-01 00:12:46.294640028,E4_Acc,2024-06-24 11:34:19.235800028,-9.0,-63.0,12.0
1904-01-01 00:12:46.325890028,E4_Acc,2024-06-24 11:34:19.267050028,-10.0,-63.0,12.0
1904-01-01 00:12:46.357140028,E4_Acc,2024-06-24 11:34:19.298300028,-10.0,-63.0,12.0
1904-01-01 00:12:46.388390028,E4_Acc,2024-06-24 11:34:19.329550028,-10.0,-63.0,12.0
1904-01-01 00:12:46.419640028,E4_Acc,2024-06-24 11:34:19.360800028,-10.0,-63.0,12.0
1904-01-01 00:12:46.450890028,E4_Acc,2024-06-24 11:34:19.392050028,-10.0,-63.0,12.0
1904-01-01 00:12:46.482140028,E4_Acc,2024-06-24 11:34:19.423300028,-10.0,-63.0,12.0
1904-01-01 00:12:46.513400041,E4_Acc,2024-06-24 11:34:19.454560041,-10.0,-63.0,12.0
1904-01-01 00:12:46.544650041,E4_Acc,2024-06-24 11:34:19.485810041,-10.0,-63.0,12.0
1904-01-01 00:12:46.575900041,E4_Acc,2024-06-24 11:34:19.517060041,-9.0,-63.0,12.0
1904-01-01 00:12:46.607150041,E4_Acc,2024-06-24 11:34:19.548310041,-9.0,-63.0,12.0
1904-01-01 00:12:46.638400041,E4_Acc,2024-06-24 11:34:19.579560041,-9.0,-63.0,12.0
1904-01-01 00:12:46.669650041,E4_Acc,2024-06-24 11:34:19.610810041,-9.0,-63.0,13.0
1904-01-01 00:12:46.700900041,E4_Acc,2024-06-24 11:34:19.642060041,-10.0,-64.0,12.0
1904-01-01 00:12:46.732160055,E4_Acc,2024-06-24 11:34:19.673320055,-10.0,-63.0,12.0
1904-01-01 00:12:46.763410055,E4_Acc,2024-06-24 11:34:19.704570055,-10.0,-62.0,12.0
1904-01-01 00:12:46.794660055,E4_Acc,2024-06-24 11:34:19.735820055,-10.0,-63.0,12.0
1904-01-01 00:12:46.825910055,E4_Acc,2024-06-24 11:34:19.767070055,-10.0,-63.0,12.0
1904-01-01 00:12:46.857160055,E4_Acc,2024-06-24 11:34:19.798320055,-10.0,-63.0,12.0
1904-01-01 00:12:46.888410055,E4_Acc,2024-06-24 11:34:19.829570055,-10.0,-63.0,12.0
1904-01-01 00:12:46.919660055,E4_Acc,2024-06-24 11:34:19.860820055,-10.0,-63.0,12.0
1904-01-01 00:12:46.950920069,E4_Acc,2024-06-24 11:34:19.892080069,-10.0,-63.0,12.0
1904-01-01 00:12:46.982170069,E4_Acc,2024-06-24 11:34:19.923330069,-10.0,-63.0,12.0
1904-01-01 00:12:47.013420069,E4_Acc,2024-06-24 11:34:19.954580069,-10.0,-63.0,12.0
1904-01-01 00:12:47.044670069,E4_Acc,2024-06-24 11:34:19.985830069,-10.0,-63.0,12.0
1904-01-01 00:12:47.075920069,E4_Acc,2024-06-24 11:34:20.017080069,-10.0,-63.0,12.0
1904-01-01 00:12:47.107170069,E4_Acc,2024-06-24 11:34:20.048330069,-10.0,-63.0,12.0
1904-01-01 00:12:47.138420069,E4_Acc,2024-06-24 11:34:20.079580069,-10.0,-63.0,12.0
1904-01-01 00:12:47.169680082,E4_Acc,2024-06-24 11:34:20.110840082,-10.0,-63.0,12.0
1904-01-01 00:12:47.200930082,E4_Acc,2024-06-24 11:34:20.142090082,-10.0,-63.0,13.0
1904-01-01 00:12:47.232180082,E4_Acc,2024-06-24 11:34:20.173340082,-10.0,-63.0,13.0
1904-01-01 00:12:47.263430082,E4_Acc,2024-06-24 11:34:20.204590082,-10.0,-63.0,12.0
1904-01-01 00:12:47.294680082,E4_Acc,2024-06-24 11:34:20.235840082,-10.0,-63.0,12.0
1904-01-01 00:12:47.325930082,E4_Acc,2024-06-24 11:34:20.267090082,-9.0,-63.0,12.0
1904-01-01 00:12:47.357180082,E4_Acc,2024-06-24 11:34:20.298340082,-10.0,-63.0,12.0
1904-01-01 00:12:47.388440096,E4_Acc,2024-06-24 11:34:20.329600096,-9.0,-63.0,12.0
1904-01-01 00:12:47.419690096,E4_Acc,2024-06-24 11:34:20.360850096,-9.0,-63.0,13.0
1904-01-01 00:12:47.450940096,E4_Acc,2024-06-24 11:34:20.392100096,-10.0,-63.0,12.0
1904-01-01 00:12:47.482190096,E4_Acc,2024-06-24 11:34:20.423350096,-9.0,-63.0,12.0
1904-01-01 00:12:47.513440096,E4_Acc,2024-06-24 11:34:20.454600096,-10.0,-63.0,12.0
1904-01-01 00:12:47.544690096,E4_Acc,2024-06-24 11:34:20.485850096,-10.0,-63.0,12.0
1904-01-01 00:12:47.575940095,E4_Acc,2024-06-24 11:34:20.517100095,-10.0,-63.0,12.0
1904-01-01 00:12:47.607200109,E4_Acc,2024-06-24 11:34:20.548360109,-10.0,-63.0,12.0
1904-01-01 00:12:47.638450109,E4_Acc,2024-06-24 11:34:20.579610109,-10.0,-63.0,12.0
1904-01-01 00:12:47.669700109,E4_Acc,2024-06-24 11:34:20.610860109,-10.0,-63.0,12.0
1904-01-01 00:12:47.700950109,E4_Acc,2024-06-24 11:34:20.642110109,-10.0,-63.0,12.0
1904-01-01 00:12:47.732200109,E4_Acc,2024-06-24 11:34:20.673360109,-10.0,-63.0,13.0
1904-01-01 00:12:47.763450109,E4_Acc,2024-06-24 11:34:20.704610109,-10.0,-63.0,12.0
1904-01-01 00:12:47.794700109,E4_Acc,2024-06-24 11:34:20.735860109,-10.0,-63.0,12.0
1904-01-01 00:12:47.825959884,E4_Acc,2024-06-24 11:34:20.767119884,-9.0,-63.0,12.0
1904-01-01 00:12:47.857209884,E4_Acc,2024-06-24 11:34:20.798369884,-9.0,-63.0,12.0
1904-01-01 00:12:47.888459884,E4_Acc,2024-06-24 11:34:20.829619884,-9.0,-63.0,12.0
1904-01-01 00:12:47.919709884,E4_Acc,2024-06-24 11:34:20.860869884,-9.0,-63.0,12.0
1904-01-01 00:12:47.950959884,E4_Acc,2024-06-24 11:34:20.892119884,-9.0,-63.0,13.0
1904-01-01 00:12:47.982209884,E4_Acc,2024-06-24 11:34:20.923369884,-9.0,-63.0,13.0
1904-01-01 00:12:48.013459884,E4_Acc,2024-06-24 11:34:20.954619884,-9.0,-64.0,13.0
1904-01-01 00:12:48.044719898,E4_Acc,2024-06-24 11:34:20.985879898,-9.0,-63.0,13.0
1904-01-01 00:12:48.075969898,E4_Acc,2024-06-24 11:34:21.017129898,-9.0,-63.0,13.0
1904-01-01 00:12:48.107219898,E4_Acc,2024-06-24 11:34:21.048379898,-10.0,-63.0,12.0
1904-01-01 00:12:48.138469898,E4_Acc,2024-06-24 11:34:21.079629898,-10.0,-63.0,12.0
1904-01-01 00:12:48.169719898,E4_Acc,2024-06-24 11:34:21.110879898,-10.0,-63.0,12.0
1904-01-01 00:12:48.200969898,E4_Acc,2024-06-24 11:34:21.142129898,-9.0,-63.0,12.0
1904-01-01 00:12:48.232219898,E4_Acc,2024-06-24 11:34:21.173379898,-9.0,-63.0,12.0
1904-01-01 00:12:48.263479912,E4_Acc,2024-06-24 11:34:21.204639912,-9.0,-63.0,12.0
1904-01-01 00:12:48.294729912,E4_Acc,2024-06-24 11:34:21.235889912,-9.0,-63.0,13.0
1904-01-01 00:12:48.325979911,E4_Acc,2024-06-24 11:34:21.267139911,-9.0,-63.0,13.0
1904-01-01 00:12:48.357229912,E4_Acc,2024-06-24 11:34:21.298389912,-9.0,-63.0,13.0
1904-01-01 00:12:48.388479912,E4_Acc,2024-06-24 11:34:21.329639912,-9.0,-63.0,12.0
1904-01-01 00:12:48.419729912,E4_Acc,2024-06-24 11:34:21.360889912,-9.0,-63.0,12.0
1904-01-01 00:12:48.450989925,E4_Acc,2024-06-24 11:34:21.392149925,-9.0,-63.0,12.0
1904-01-01 00:12:48.482239925,E4_Acc,2024-06-24 11:34:21.423399925,-9.0,-63.0,12.0
1904-01-01 00:12:48.513489925,E4_Acc,2024-06-24 11:34:21.454649925,-9.0,-63.0,12.0
1904-01-01 00:12:48.544739925,E4_Acc,2024-06-24 11:34:21.485899925,-9.0,-63.0,12.0
1904-01-01 00:12:48.575989925,E4_Acc,2024-06-24 11:34:21.517149925,-9.0,-63.0,12.0
1904-01-01 00:12:48.607239925,E4_Acc,2024-06-24 11:34:21.548399925,-9.0,-63.0,12.0
1904-01-01 00:12:48.638489925,E4_Acc,2024-06-24 11:34:21.579649925,-9.0,-63.0,12.0
1904-01-01 00:12:48.669749939,E4_Acc,2024-06-24 11:34:21.610909939,-10.0,-63.0,13.0
1904-01-01 00:12:48.700999939,E4_Acc,2024-06-24 11:34:21.642159939,-9.0,-63.0,13.0
1904-01-01 00:12:48.732249939,E4_Acc,2024-06-24 11:34:21.673409939,-10.0,-63.0,13.0
1904-01-01 00:12:48.763499939,E4_Acc,2024-06-24 11:34:21.704659939,-10.0,-63.0,13.0
1904-01-01 00:12:48.794749939,E4_Acc,2024-06-24 11:34:21.735909939,-9.0,-63.0,13.0
1904-01-01 00:12:48.825999939,E4_Acc,2024-06-24 11:34:21.767159939,-9.0,-63.0,12.0
1904-01-01 00:12:48.857249939,E4_Acc,2024-06-24 11:34:21.798409939,-9.0,-63.0,12.0
1904-01-01 00:12:48.888509952,E4_Acc,2024-06-24 11:34:21.829669952,-9.0,-63.0,12.0
1904-01-01 00:12:48.919759952,E4_Acc,2024-06-24 11:34:21.860919952,-9.0,-63.0,12.0
1904-01-01 00:12:48.951009952,E4_Acc,2024-06-24 11:34:21.892169952,-8.0,-63.0,12.0
1904-01-01 00:12:48.982259952,E4_Acc,2024-06-24 11:34:21.923419952,-9.0,-63.0,12.0
1904-01-01 00:12:49.013509952,E4_Acc,2024-06-24 11:34:21.954669952,-9.0,-63.0,12.0
1904-01-01 00:12:49.044759952,E4_Acc,2024-06-24 11:34:21.985919952,-9.0,-63.0,12.0
1904-01-01 00:12:49.076009952,E4_Acc,2024-06-24 11:34:22.017169952,-10.0,-63.0,12.0
1904-01-01 00:12:49.107269966,E4_Acc,2024-06-24 11:34:22.048429966,-10.0,-63.0,12.0
1904-01-01 00:12:49.138519966,E4_Acc,2024-06-24 11:34:22.079679966,-9.0,-63.0,12.0
1904-01-01 00:12:49.169769966,E4_Acc,2024-06-24 11:34:22.110929966,-9.0,-63.0,12.0
1904-01-01 00:12:49.201019966,E4_Acc,2024-06-24 11:34:22.142179966,-9.0,-63.0,12.0
1904-01-01 00:12:49.232269966,E4_Acc,2024-06-24 11:34:22.173429966,-9.0,-63.0,12.0
1904-01-01 00:12:49.263519966,E4_Acc,2024-06-24 11:34:22.204679966,-9.0,-63.0,12.0
1904-01-01 00:12:49.294769966,E4_Acc,2024-06-24 11:34:22.235929966,-9.0,-63.0,12.0
1904-01-01 00:12:49.326029980,E4_Acc,2024-06-24 11:34:22.267189980,-9.0,-63.0,12.0
1904-01-01 00:12:49.357279980,E4_Acc,2024-06-24 11:34:22.298439980,-9.0,-63.0,12.0
1904-01-01 00:12:49.388529980,E4_Acc,2024-06-24 11:34:22.329689980,-9.0,-63.0,12.0
1904-01-01 00:12:49.419779980,E4_Acc,2024-06-24 11:34:22.360939980,-9.0,-63.0,12.0
1904-01-01 00:12:49.451029980,E4_Acc,2024-06-24 11:34:22.392189980,-9.0,-63.0,12.0
1904-01-01 00:12:49.482279980,E4_Acc,2024-06-24 11:34:22.423439980,-9.0,-63.0,12.0
1904-01-01 00:12:49.513529980,E4_Acc,2024-06-24 11:34:22.454689980,-9.0,-63.0,12.0
1904-01-01 00:12:49.544789993,E4_Acc,2024-06-24 11:34:22.485949993,-9.0,-63.0,12.0
1904-01-01 00:12:49.576039992,E4_Acc,2024-06-24 11:34:22.517199992,-9.0,-63.0,12.0
1904-01-01 00:12:49.607289993,E4_Acc,2024-06-24 11:34:22.548449993,-9.0,-63.0,12.0
1904-01-01 00:12:49.638539993,E4_Acc,2024-06-24 11:34:22.579699993,-9.0,-63.0,12.0
1904-01-01 00:12:49.669789993,E4_Acc,2024-06-24 11:34:22.610949993,-9.0,-63.0,12.0
1904-01-01 00:12:49.701039993,E4_Acc,2024-06-24 11:34:22.642199993,-9.0,-63.0,12.0
1904-01-01 00:12:49.732289993,E4_Acc,2024-06-24 11:34:22.673449993,-10.0,-63.0,12.0
1904-01-01 00:12:49.763550007,E4_Acc,2024-06-24 11:34:22.704710007,-9.0,-63.0,12.0
1904-01-01 00:12:49.794800007,E4_Acc,2024-06-24 11:34:22.735960007,-9.0,-63.0,12.0
1904-01-01 00:12:49.826050007,E4_Acc,2024-06-24 11:34:22.767210007,-10.0,-63.0,12.0
1904-01-01 00:12:49.857300007,E4_Acc,2024-06-24 11:34:22.798460007,-10.0,-63.0,11.0
1904-01-01 00:12:49.888550007,E4_Acc,2024-06-24 11:34:22.829710007,-10.0,-63.0,11.0
1904-01-01 00:12:49.919800007,E4_Acc,2024-06-24 11:34:22.860960007,-10.0,-63.0,12.0
1904-01-01 00:12:49.951050007,E4_Acc,2024-06-24 11:34:22.892210007,-9.0,-63.0,12.0
1904-01-01 00:12:49.982310020,E4_Acc,2024-06-24 11:34:22.923470020,-9.0,-63.0,11.0
1904-01-01 00:12:50.013560020,E4_Acc,2024-06-24 11:34:22.954720020,-9.0,-63.0,12.0
1904-01-01 00:12:50.044810020,E4_Acc,2024-06-24 11:34:22.985970020,-9.0,-63.0,12.0
1904-01-01 00:12:50.076060020,E4_Acc,2024-06-24 11:34:23.017220020,-10.0,-64.0,12.0
1904-01-01 00:12:50.107310020,E4_Acc,2024-06-24 11:34:23.048470020,-10.0,-64.0,12.0
1904-01-01 00:12:50.138560020,E4_Acc,2024-06-24 11:34:23.079720020,-10.0,-63.0,12.0
1904-01-01 00:12:50.169810020,E4_Acc,2024-06-24 11:34:23.110970020,-10.0,-63.0,11.0
1904-01-01 00:12:50.201070034,E4_Acc,2024-06-24 11:34:23.142230034,-10.0,-63.0,11.0
1904-01-01 00:12:50.232320034,E4_Acc,2024-06-24 11:34:23.173480034,-10.0,-63.0,11.0
1904-01-01 00:12:50.263570034,E4_Acc,2024-06-24 11:34:23.204730034,-10.0,-63.0,11.0
1904-01-01 00:12:50.294820034,E4_Acc,2024-06-24 11:34:23.235980034,-10.0,-63.0,11.0
1904-01-01 00:12:50.326070034,E4_Acc,2024-06-24 11:34:23.267230034,-9.0,-63.0,11.0
1904-01-01 00:12:50.357320034,E4_Acc,2024-06-24 11:34:23.298480034,-9.0,-63.0,12.0
1904-01-01 00:12:50.388570034,E4_Acc,2024-06-24 11:34:23.329730034,-9.0,-63.0,12.0
1904-01-01 00:12:50.419830047,E4_Acc,2024-06-24 11:34:23.360990047,-10.0,-63.0,12.0
1904-01-01 00:12:50.451080047,E4_Acc,2024-06-24 11:34:23.392240047,-10.0,-63.0,12.0
1904-01-01 00:12:50.482330047,E4_Acc,2024-06-24 11:34:23.423490047,-10.0,-63.0,12.0
1904-01-01 00:12:50.513580047,E4_Acc,2024-06-24 11:34:23.454740047,-10.0,-63.0,11.0
1904-01-01 00:12:50.544830047,E4_Acc,2024-06-24 11:34:23.485990047,-10.0,-63.0,12.0
1904-01-01 00:12:50.576080047,E4_Acc,2024-06-24 11:34:23.517240047,-10.0,-63.0,11.0
1904-01-01 00:12:50.607340061,E4_Acc,2024-06-24 11:34:23.548500061,-9.0,-63.0,12.0
1904-01-01 00:12:50.638590061,E4_Acc,2024-06-24 11:34:23.579750061,-10.0,-63.0,11.0
1904-01-01 00:12:50.669840061,E4_Acc,2024-06-24 11:34:23.611000061,-10.0,-63.0,11.0
1904-01-01 00:12:50.701090061,E4_Acc,2024-06-24 11:34:23.642250061,-9.0,-63.0,11.0
1904-01-01 00:12:50.732340061,E4_Acc,2024-06-24 11:34:23.673500061,-10.0,-63.0,11.0
1904-01-01 00:12:50.763590061,E4_Acc,2024-06-24 11:34:23.704750061,-10.0,-63.0,11.0
1904-01-01 00:12:50.794840061,E4_Acc,2024-06-24 11:34:23.736000061,-10.0,-63.0,11.0
1904-01-01 00:12:50.826100075,E4_Acc,2024-06-24 11:34:23.767260075,-10.0,-63.0,11.0
1904-01-01 00:12:50.857350075,E4_Acc,2024-06-24 11:34:23.798510075,-10.0,-63.0,11.0
1904-01-01 00:12:50.888600075,E4_Acc,2024-06-24 11:34:23.829760075,-10.0,-63.0,11.0
1904-01-01 00:12:50.919850075,E4_Acc,2024-06-24 11:34:23.861010075,-10.0,-63.0,12.0
1904-01-01 00:12:50.951100075,E4_Acc,2024-06-24 11:34:23.892260075,-10.0,-63.0,11.0
1904-01-01 00:12:50.982350075,E4_Acc,2024-06-24 11:34:23.923510075,-10.0,-63.0,11.0
1904-01-01 00:12:51.013600075,E4_Acc,2024-06-24 11:34:23.954760075,-10.0,-63.0,12.0
1904-01-01 00:12:51.044860088,E4_Acc,2024-06-24 11:34:23.986020088,-10.0,-63.0,12.0
1904-01-01 00:12:51.076110088,E4_Acc,2024-06-24 11:34:24.017270088,-10.0,-64.0,11.0
1904-01-01 00:12:51.107360088,E4_Acc,2024-06-24 11:34:24.048520088,-10.0,-64.0,12.0
1904-01-01 00:12:51.138610088,E4_Acc,2024-06-24 11:34:24.079770088,-9.0,-63.0,12.0
1904-01-01 00:12:51.169860088,E4_Acc,2024-06-24 11:34:24.111020088,-10.0,-63.0,11.0
1904-01-01 00:12:51.201110088,E4_Acc,2024-06-24 11:34:24.142270088,-10.0,-63.0,11.0
1904-01-01 00:12:51.232360088,E4_Acc,2024-06-24 11:34:24.173520088,-10.0,-63.0,11.0
1904-01-01 00:12:51.263620102,E4_Acc,2024-06-24 11:34:24.204780102,-10.0,-63.0,11.0
1904-01-01 00:12:51.294870102,E4_Acc,2024-06-24 11:34:24.236030102,-10.0,-63.0,11.0
1904-01-01 00:12:51.326120102,E4_Acc,2024-06-24 11:34:24.267280102,-10.0,-63.0,11.0
1904-01-01 00:12:51.357370102,E4_Acc,2024-06-24 11:34:24.298530102,-11.0,-64.0,12.0
1904-01-01 00:12:51.388620102,E4_Acc,2024-06-24 11:34:24.329780102,-10.0,-63.0,12.0
1904-01-01 00:12:51.419870102,E4_Acc,2024-06-24 11:34:24.361030102,-10.0,-63.0,12.0
1904-01-01 00:12:51.451120102,E4_Acc,2024-06-24 11:34:24.392280102,-10.0,-63.0,12.0
1904-01-01 00:12:51.482380115,E4_Acc,2024-06-24 11:34:24.423540115,-10.0,-63.0,11.0
1904-01-01 00:12:51.513630115,E4_Acc,2024-06-24 11:34:24.454790115,-10.0,-63.0,11.0
1904-01-01 00:12:51.544880115,E4_Acc,2024-06-24 11:34:24.486040115,-10.0,-63.0,11.0
1904-01-01 00:12:51.576130115,E4_Acc,2024-06-24 11:34:24.517290115,-10.0,-63.0,11.0
1904-01-01 00:12:51.607380115,E4_Acc,2024-06-24 11:34:24.548540115,-10.0,-63.0,11.0
1904-01-01 00:12:51.638630115,E4_Acc,2024-06-24 11:34:24.579790115,-10.0,-63.0,12.0
1904-01-01 00:12:51.669880115,E4_Acc,2024-06-24 11:34:24.611040115,-10.0,-63.0,12.0
1904-01-01 00:12:51.701139891,E4_Acc,2024-06-24 11:34:24.642299891,-10.0,-63.0,12.0
1904-01-01 00:12:51.732389891,E4_Acc,2024-06-24 11:34:24.673549891,-10.0,-63.0,12.0
1904-01-01 00:12:51.763639891,E4_Acc,2024-06-24 11:34:24.704799891,-10.0,-63.0,12.0
1904-01-01 00:12:51.794889891,E4_Acc,2024-06-24 11:34:24.736049891,-10.0,-63.0,12.0
1904-01-01 00:12:51.826139891,E4_Acc,2024-06-24 11:34:24.767299891,-10.0,-64.0,12.0
1904-01-01 00:12:51.857389891,E4_Acc,2024-06-24 11:34:24.798549891,-10.0,-64.0,12.0
1904-01-01 00:12:51.888639891,E4_Acc,2024-06-24 11:34:24.829799891,-9.0,-63.0,12.0
1904-01-01 00:12:51.919899904,E4_Acc,2024-06-24 11:34:24.861059904,-9.0,-62.0,11.0
1904-01-01 00:12:51.951149904,E4_Acc,2024-06-24 11:34:24.892309904,-9.0,-63.0,11.0
1904-01-01 00:12:51.982399904,E4_Acc,2024-06-24 11:34:24.923559904,-9.0,-63.0,11.0
1904-01-01 00:12:52.013649904,E4_Acc,2024-06-24 11:34:24.954809904,-9.0,-63.0,11.0
1904-01-01 00:12:52.044899904,E4_Acc,2024-06-24 11:34:24.986059904,-10.0,-64.0,12.0
1904-01-01 00:12:52.076149904,E4_Acc,2024-06-24 11:34:25.017309904,-10.0,-64.0,12.0
1904-01-01 00:12:52.107399904,E4_Acc,2024-06-24 11:34:25.048559904,-9.0,-63.0,12.0
1904-01-01 00:12:52.138659918,E4_Acc,2024-06-24 11:34:25.079819918,-9.0,-62.0,12.0
1904-01-01 00:12:52.169909918,E4_Acc,2024-06-24 11:34:25.111069918,-10.0,-63.0,11.0
1904-01-01 00:12:52.201159918,E4_Acc,2024-06-24 11:34:25.142319918,-9.0,-63.0,11.0
1904-01-01 00:12:52.232409918,E4_Acc,2024-06-24 11:34:25.173569918,-9.0,-63.0,11.0
1904-01-01 00:12:52.263659918,E4_Acc,2024-06-24 11:34:25.204819918,-9.0,-63.0,11.0
1904-01-01 00:12:52.294909918,E4_Acc,2024-06-24 11:34:25.236069918,-9.0,-63.0,11.0
1904-01-01 00:12:52.326159918,E4_Acc,2024-06-24 11:34:25.267319918,-9.0,-63.0,11.0
1904-01-01 00:12:52.357419931,E4_Acc,2024-06-24 11:34:25.298579931,-9.0,-63.0,10.0
1904-01-01 00:12:52.388669931,E4_Acc,2024-06-24 11:34:25.329829931,-9.0,-64.0,11.0
1904-01-01 00:12:52.419919931,E4_Acc,2024-06-24 11:34:25.361079931,-9.0,-64.0,11.0
1904-01-01 00:12:52.451169931,E4_Acc,2024-06-24 11:34:25.392329931,-10.0,-63.0,12.0
1904-01-01 00:12:52.482419931,E4_Acc,2024-06-24 11:34:25.423579931,-9.0,-63.0,11.0
1904-01-01 00:12:52.513669931,E4_Acc,2024-06-24 11:34:25.454829931,-9.0,-62.0,12.0
1904-01-01 00:12:52.544919931,E4_Acc,2024-06-24 11:34:25.486079931,-10.0,-63.0,11.0
1904-01-01 00:12:52.576179945,E4_Acc,2024-06-24 11:34:25.517339945,-10.0,-63.0,11.0
1904-01-01 00:12:52.607429945,E4_Acc,2024-06-24 11:34:25.548589945,-10.0,-63.0,12.0
1904-01-01 00:12:52.638679945,E4_Acc,2024-06-24 11:34:25.579839945,-9.0,-63.0,12.0
1904-01-01 00:12:52.669929945,E4_Acc,2024-06-24 11:34:25.611089945,-10.0,-64.0,12.0
1904-01-01 00:12:52.701179945,E4_Acc,2024-06-24 11:34:25.642339945,-9.0,-63.0,12.0
1904-01-01 00:12:52.732429945,E4_Acc,2024-06-24 11:34:25.673589945,-9.0,-63.0,12.0
1904-01-01 00:12:52.763679945,E4_Acc,2024-06-24 11:34:25.704839945,-9.0,-62.0,11.0
1904-01-01 00:12:52.794939958,E4_Acc,2024-06-24 11:34:25.736099958,-10.0,-63.0,11.0
1904-01-01 00:12:52.826189958,E4_Acc,2024-06-24 11:34:25.767349958,-10.0,-62.0,11.0
1904-01-01 00:12:52.857439958,E4_Acc,2024-06-24 11:34:25.798599958,-10.0,-63.0,11.0
1904-01-01 00:12:52.888689958,E4_Acc,2024-06-24 11:34:25.829849958,-10.0,-63.0,11.0
1904-01-01 00:12:52.919939958,E4_Acc,2024-06-24 11:34:25.861099958,-10.0,-63.0,11.0
1904-01-01 00:12:52.951189958,E4_Acc,2024-06-24 11:34:25.892349958,-10.0,-63.0,12.0
1904-01-01 00:12:52.982439958,E4_Acc,2024-06-24 11:34:25.923599958,-10.0,-63.0,12.0
1904-01-01 00:12:53.013699972,E4_Acc,2024-06-24 11:34:25.954859972,-10.0,-63.0,12.0
1904-01-01 00:12:53.044949972,E4_Acc,2024-06-24 11:34:25.986109972,-10.0,-63.0,12.0
1904-01-01 00:12:53.076199972,E4_Acc,2024-06-24 11:34:26.017359972,-10.0,-63.0,11.0
1904-01-01 00:12:53.107449972,E4_Acc,2024-06-24 11:34:26.048609972,-10.0,-63.0,11.0
1904-01-01 00:12:53.138699972,E4_Acc,2024-06-24 11:34:26.079859972,-9.0,-63.0,11.0
1904-01-01 00:12:53.169949972,E4_Acc,2024-06-24 11:34:26.111109972,-9.0,-64.0,12.0
1904-01-01 00:12:53.201199972,E4_Acc,2024-06-24 11:34:26.142359972,-10.0,-64.0,12.0
1904-01-01 00:12:53.232459986,E4_Acc,2024-06-24 11:34:26.173619986,-9.0,-64.0,12.0
1904-01-01 00:12:53.263709986,E4_Acc,2024-06-24 11:34:26.204869986,-9.0,-63.0,12.0
1904-01-01 00:12:53.294959986,E4_Acc,2024-06-24 11:34:26.236119986,-9.0,-63.0,12.0
1904-01-01 00:12:53.326209986,E4_Acc,2024-06-24 11:34:26.267369986,-9.0,-63.0,11.0
1904-01-01 00:12:53.357459986,E4_Acc,2024-06-24 11:34:26.298619986,-9.0,-63.0,11.0
1904-01-01 00:12:53.388709986,E4_Acc,2024-06-24 11:34:26.329869986,-10.0,-64.0,11.0
1904-01-01 00:12:53.419969999,E4_Acc,2024-06-24 11:34:26.361129999,-10.0,-64.0,11.0
1904-01-01 00:12:53.451219999,E4_Acc,2024-06-24 11:34:26.392379999,-10.0,-63.0,11.0
1904-01-01 00:12:53.482469999,E4_Acc,2024-06-24 11:34:26.423629999,-9.0,-62.0,11.0
1904-01-01 00:12:53.513719999,E4_Acc,2024-06-24 11:34:26.454879999,-10.0,-63.0,11.0
1904-01-01 00:12:53.544969999,E4_Acc,2024-06-24 11:34:26.486129999,-10.0,-64.0,11.0
1904-01-01 00:12:53.576219999,E4_Acc,2024-06-24 11:34:26.517379999,-10.0,-64.0,11.0
1904-01-01 00:12:53.607469999,E4_Acc,2024-06-24 11:34:26.548629999,-10.0,-63.0,12.0
1904-01-01 00:12:53.638730013,E4_Acc,2024-06-24 11:34:26.579890013,-10.0,-63.0,11.0
1904-01-01 00:12:53.669980013,E4_Acc,2024-06-24 11:34:26.611140013,-11.0,-63.0,11.0
1904-01-01 00:12:53.701230013,E4_Acc,2024-06-24 11:34:26.642390013,-10.0,-64.0,11.0
1904-01-01 00:12:53.732480013,E4_Acc,2024-06-24 11:34:26.673640013,-9.0,-63.0,11.0
1904-01-01 00:12:53.763730013,E4_Acc,2024-06-24 11:34:26.704890013,-9.0,-63.0,12.0
1904-01-01 00:12:53.794980013,E4_Acc,2024-06-24 11:34:26.736140013,-9.0,-63.0,12.0
1904-01-01 00:12:53.826230013,E4_Acc,2024-06-24 11:34:26.767390013,-8.0,-63.0,12.0
1904-01-01 00:12:53.857490026,E4_Acc,2024-06-24 11:34:26.798650026,-8.0,-63.0,12.0
1904-01-01 00:12:53.888740026,E4_Acc,2024-06-24 11:34:26.829900026,-9.0,-63.0,12.0
1904-01-01 00:12:53.919990026,E4_Acc,2024-06-24 11:34:26.861150026,-9.0,-63.0,11.0
1904-01-01 00:12:53.951240026,E4_Acc,2024-06-24 11:34:26.892400026,-9.0,-62.0,11.0
1904-01-01 00:12:53.982490026,E4_Acc,2024-06-24 11:34:26.923650026,-10.0,-63.0,11.0
1904-01-01 00:12:54.013740026,E4_Acc,2024-06-24 11:34:26.954900026,-10.0,-63.0,11.0
1904-01-01 00:12:54.044990026,E4_Acc,2024-06-24 11:34:26.986150026,-10.0,-64.0,11.0
1904-01-01 00:12:54.076250040,E4_Acc,2024-06-24 11:34:27.017410040,-11.0,-64.0,12.0
1904-01-01 00:12:54.107500040,E4_Acc,2024-06-24 11:34:27.048660040,-10.0,-63.0,12.0
1904-01-01 00:12:54.138750040,E4_Acc,2024-06-24 11:34:27.079910040,-10.0,-63.0,12.0
1904-01-01 00:12:54.170000040,E4_Acc,2024-06-24 11:34:27.111160040,-10.0,-63.0,12.0
1904-01-01 00:12:54.201250040,E4_Acc,2024-06-24 11:34:27.142410040,-10.0,-63.0,12.0
1904-01-01 00:12:54.232500040,E4_Acc,2024-06-24 11:34:27.173660040,-10.0,-63.0,12.0
1904-01-01 00:12:54.263750040,E4_Acc,2024-06-24 11:34:27.204910040,-10.0,-63.0,12.0
1904-01-01 00:12:54.295010053,E4_Acc,2024-06-24 11:34:27.236170053,-10.0,-63.0,12.0
1904-01-01 00:12:54.326260053,E4_Acc,2024-06-24 11:34:27.267420053,-10.0,-63.0,12.0
1904-01-01 00:12:54.357510053,E4_Acc,2024-06-24 11:34:27.298670053,-10.0,-63.0,12.0
1904-01-01 00:12:54.388760053,E4_Acc,2024-06-24 11:34:27.329920053,-10.0,-63.0,11.0
1904-01-01 00:12:54.420010053,E4_Acc,2024-06-24 11:34:27.361170053,-10.0,-63.0,12.0
1904-01-01 00:12:54.451260053,E4_Acc,2024-06-24 11:34:27.392420053,-10.0,-63.0,12.0
1904-01-01 00:12:54.482510053,E4_Acc,2024-06-24 11:34:27.423670053,-10.0,-63.0,12.0
1904-01-01 00:12:54.513770067,E4_Acc,2024-06-24 11:34:27.454930067,-10.0,-63.0,12.0
1904-01-01 00:12:54.545020067,E4_Acc,2024-06-24 11:34:27.486180067,-10.0,-63.0,12.0
1904-01-01 00:12:54.576270067,E4_Acc,2024-06-24 11:34:27.517430067,-9.0,-63.0,12.0
1904-01-01 00:12:54.607520067,E4_Acc,2024-06-24 11:34:27.548680067,-10.0,-63.0,12.0
1904-01-01 00:12:54.638770067,E4_Acc,2024-06-24 11:34:27.579930067,-10.0,-63.0,11.0
1904-01-01 00:12:54.670020067,E4_Acc,2024-06-24 11:34:27.611180067,-10.0,-63.0,11.0
1904-01-01 00:12:54.701270067,E4_Acc,2024-06-24 11:34:27.642430067,-10.0,-63.0,12.0
1904-01-01 00:12:54.732530081,E4_Acc,2024-06-24 11:34:27.673690081,-10.0,-63.0,12.0
1904-01-01 00:12:54.763780081,E4_Acc,2024-06-24 11:34:27.704940081,-10.0,-63.0,11.0
1904-01-01 00:12:54.795030081,E4_Acc,2024-06-24 11:34:27.736190081,-10.0,-63.0,11.0
1904-01-01 00:12:54.826280081,E4_Acc,2024-06-24 11:34:27.767440081,-10.0,-63.0,11.0
1904-01-01 00:12:54.857530081,E4_Acc,2024-06-24 11:34:27.798690081,-9.0,-63.0,12.0
1904-01-01 00:12:54.888780081,E4_Acc,2024-06-24 11:34:27.829940081,-9.0,-63.0,12.0
1904-01-01 00:12:54.920030081,E4_Acc,2024-06-24 11:34:27.861190081,-10.0,-63.0,12.0
1904-01-01 00:12:54.951290094,E4_Acc,2024-06-24 11:34:27.892450094,-10.0,-63.0,12.0
1904-01-01 00:12:54.982540094,E4_Acc,2024-06-24 11:34:27.923700094,-10.0,-63.0,12.0
1904-01-01 00:12:55.013790094,E4_Acc,2024-06-24 11:34:27.954950094,-10.0,-63.0,12.0
1904-01-01 00:12:55.045040094,E4_Acc,2024-06-24 11:34:27.986200094,-10.0,-63.0,12.0
1904-01-01 00:12:55.076290094,E4_Acc,2024-06-24 11:34:28.017450094,-10.0,-63.0,12.0
1904-01-01 00:12:55.107540094,E4_Acc,2024-06-24 11:34:28.048700094,-10.0,-63.0,11.0
1904-01-01 00:12:55.138790094,E4_Acc,2024-06-24 11:34:28.079950094,-9.0,-63.0,11.0
1904-01-01 00:12:55.170050108,E4_Acc,2024-06-24 11:34:28.111210108,-9.0,-63.0,11.0
1904-01-01 00:12:55.201300108,E4_Acc,2024-06-24 11:34:28.142460108,-10.0,-63.0,11.0
1904-01-01 00:12:55.232550108,E4_Acc,2024-06-24 11:34:28.173710108,-9.0,-63.0,12.0
1904-01-01 00:12:55.263800108,E4_Acc,2024-06-24 11:34:28.204960108,-9.0,-63.0,12.0
1904-01-01 00:12:55.295050108,E4_Acc,2024-06-24 11:34:28.236210108,-10.0,-63.0,11.0
1904-01-01 00:12:55.326300107,E4_Acc,2024-06-24 11:34:28.267460107,-10.0,-63.0,11.0
1904-01-01 00:12:55.357550108,E4_Acc,2024-06-24 11:34:28.298710108,-10.0,-63.0,11.0
1904-01-01 00:12:55.388809883,E4_Acc,2024-06-24 11:34:28.329969883,-9.0,-63.0,11.0
1904-01-01 00:12:55.420059883,E4_Acc,2024-06-24 11:34:28.361219883,-10.0,-63.0,11.0
1904-01-01 00:12:55.451309883,E4_Acc,2024-06-24 11:34:28.392469883,-10.0,-63.0,11.0
1904-01-01 00:12:55.482559883,E4_Acc,2024-06-24 11:34:28.423719883,-10.0,-63.0,12.0
1904-01-01 00:12:55.513809883,E4_Acc,2024-06-24 11:34:28.454969883,-10.0,-63.0,12.0
1904-01-01 00:12:55.545059883,E4_Acc,2024-06-24 11:34:28.486219883,-10.0,-63.0,12.0
1904-01-01 00:12:55.576319896,E4_Acc,2024-06-24 11:34:28.517479896,-10.0,-63.0,11.0
1904-01-01 00:12:55.607569897,E4_Acc,2024-06-24 11:34:28.548729897,-10.0,-63.0,11.0
1904-01-01 00:12:55.638819897,E4_Acc,2024-06-24 11:34:28.579979897,-10.0,-63.0,11.0
1904-01-01 00:12:55.670069897,E4_Acc,2024-06-24 11:34:28.611229897,-10.0,-63.0,11.0
1904-01-01 00:12:55.701319897,E4_Acc,2024-06-24 11:34:28.642479897,-10.0,-63.0,11.0
1904-01-01 00:12:55.732569897,E4_Acc,2024-06-24 11:34:28.673729897,-9.0,-63.0,11.0
1904-01-01 00:12:55.763819897,E4_Acc,2024-06-24 11:34:28.704979897,-9.0,-63.0,11.0
1904-01-01 00:12:55.795079910,E4_Acc,2024-06-24 11:34:28.736239910,-9.0,-63.0,11.0
1904-01-01 00:12:55.826329910,E4_Acc,2024-06-24 11:34:28.767489910,-9.0,-63.0,12.0
1904-01-01 00:12:55.857579910,E4_Acc,2024-06-24 11:34:28.798739910,-10.0,-63.0,11.0
1904-01-01 00:12:55.888829910,E4_Acc,2024-06-24 11:34:28.829989910,-9.0,-63.0,11.0
1904-01-01 00:12:55.920079910,E4_Acc,2024-06-24 11:34:28.861239910,-9.0,-63.0,11.0
1904-01-01 00:12:55.951329910,E4_Acc,2024-06-24 11:34:28.892489910,-9.0,-63.0,11.0
1904-01-01 00:12:55.982579910,E4_Acc,2024-06-24 11:34:28.923739910,-9.0,-63.0,11.0
1904-01-01 00:12:56.013839924,E4_Acc,2024-06-24 11:34:28.954999924,-9.0,-63.0,11.0
1904-01-01 00:12:56.045089924,E4_Acc,2024-06-24 11:34:28.986249924,-9.0,-63.0,11.0
1904-01-01 00:12:56.076339924,E4_Acc,2024-06-24 11:34:29.017499924,-9.0,-63.0,11.0
1904-01-01 00:12:56.107589924,E4_Acc,2024-06-24 11:34:29.048749924,-9.0,-63.0,11.0
1904-01-01 00:12:56.138839924,E4_Acc,2024-06-24 11:34:29.079999924,-9.0,-63.0,12.0
1904-01-01 00:12:56.170089924,E4_Acc,2024-06-24 11:34:29.111249924,-9.0,-63.0,11.0
1904-01-01 00:12:56.201339924,E4_Acc,2024-06-24 11:34:29.142499924,-9.0,-63.0,11.0
1904-01-01 00:12:56.232599937,E4_Acc,2024-06-24 11:34:29.173759937,-9.0,-64.0,11.0
1904-01-01 00:12:56.263849937,E4_Acc,2024-06-24 11:34:29.205009937,-10.0,-63.0,11.0
1904-01-01 00:12:56.295099937,E4_Acc,2024-06-24 11:34:29.236259937,-9.0,-63.0,11.0
1904-01-01 00:12:56.326349936,E4_Acc,2024-06-24 11:34:29.267509936,-9.0,-63.0,11.0
1904-01-01 00:12:56.357599937,E4_Acc,2024-06-24 11:34:29.298759937,-9.0,-63.0,11.0
1904-01-01 00:12:56.388849937,E4_Acc,2024-06-24 11:34:29.330009937,-9.0,-63.0,11.0
1904-01-01 00:12:56.420099937,E4_Acc,2024-06-24 11:34:29.361259937,-10.0,-63.0,11.0
1904-01-01 00:12:56.451359951,E4_Acc,2024-06-24 11:34:29.392519951,-10.0,-63.0,12.0
1904-01-01 00:12:56.482609951,E4_Acc,2024-06-24 11:34:29.423769951,-9.0,-63.0,11.0
1904-01-01 00:12:56.513859951,E4_Acc,2024-06-24 11:34:29.455019951,-10.0,-63.0,11.0
1904-01-01 00:12:56.545109951,E4_Acc,2024-06-24 11:34:29.486269951,-10.0,-63.0,11.0
1904-01-01 00:12:56.576359951,E4_Acc,2024-06-24 11:34:29.517519951,-10.0,-63.0,12.0
1904-01-01 00:12:56.607609951,E4_Acc,2024-06-24 11:34:29.548769951,-10.0,-63.0,11.0
1904-01-01 00:12:56.638859951,E4_Acc,2024-06-24 11:34:29.580019951,-10.0,-63.0,11.0
1904-01-01 00:12:56.670119964,E4_Acc,2024-06-24 11:34:29.611279964,-9.0,-63.0,12.0
1904-01-01 00:12:56.701369964,E4_Acc,2024-06-24 11:34:29.642529964,-9.0,-63.0,12.0
1904-01-01 00:12:56.732619964,E4_Acc,2024-06-24 11:34:29.673779964,-9.0,-63.0,11.0
1904-01-01 00:12:56.763869964,E4_Acc,2024-06-24 11:34:29.705029964,-9.0,-63.0,12.0
1904-01-01 00:12:56.795119964,E4_Acc,2024-06-24 11:34:29.736279964,-9.0,-63.0,12.0
1904-01-01 00:12:56.826369964,E4_Acc,2024-06-24 11:34:29.767529964,-10.0,-63.0,11.0
1904-01-01 00:12:56.857619964,E4_Acc,2024-06-24 11:34:29.798779964,-9.0,-63.0,12.0
1904-01-01 00:12:56.888879978,E4_Acc,2024-06-24 11:34:29.830039978,-9.0,-63.0,12.0
1904-01-01 00:12:56.920129978,E4_Acc,2024-06-24 11:34:29.861289978,-9.0,-63.0,12.0
1904-01-01 00:12:56.951379978,E4_Acc,2024-06-24 11:34:29.892539978,-9.0,-63.0,12.0
1904-01-01 00:12:56.982629978,E4_Acc,2024-06-24 11:34:29.923789978,-9.0,-63.0,12.0
1904-01-01 00:12:57.013879978,E4_Acc,2024-06-24 11:34:29.955039978,-9.0,-63.0,11.0
1904-01-01 00:12:57.045129978,E4_Acc,2024-06-24 11:34:29.986289978,-9.0,-63.0,12.0
1904-01-01 00:12:57.076379978,E4_Acc,2024-06-24 11:34:30.017539978,-10.0,-63.0,12.0
1904-01-01 00:12:57.107639992,E4_Acc,2024-06-24 11:34:30.048799992,-10.0,-63.0,12.0
1904-01-01 00:12:57.138889992,E4_Acc,2024-06-24 11:34:30.080049992,-10.0,-64.0,12.0
1904-01-01 00:12:57.170139992,E4_Acc,2024-06-24 11:34:30.111299992,-10.0,-63.0,12.0
1904-01-01 00:12:57.201389992,E4_Acc,2024-06-24 11:34:30.142549992,-10.0,-63.0,12.0
1904-01-01 00:12:57.232639992,E4_Acc,2024-06-24 11:34:30.173799992,-10.0,-63.0,12.0
1904-01-01 00:12:57.263889992,E4_Acc,2024-06-24 11:34:30.205049992,-10.0,-63.0,12.0
1904-01-01 00:12:57.295139992,E4_Acc,2024-06-24 11:34:30.236299992,-9.0,-63.0,12.0
1904-01-01 00:12:57.326400005,E4_Acc,2024-06-24 11:34:30.267560005,-9.0,-63.0,12.0
1904-01-01 00:12:57.357650005,E4_Acc,2024-06-24 11:34:30.298810005,-9.0,-63.0,11.0
1904-01-01 00:12:57.388900005,E4_Acc,2024-06-24 11:34:30.330060005,-10.0,-63.0,12.0
1904-01-01 00:12:57.420150005,E4_Acc,2024-06-24 11:34:30.361310005,-9.0,-63.0,13.0
1904-01-01 00:12:57.451400005,E4_Acc,2024-06-24 11:34:30.392560005,-10.0,-63.0,12.0
1904-01-01 00:12:57.482650005,E4_Acc,2024-06-24 11:34:30.423810005,-10.0,-63.0,12.0
1904-01-01 00:12:57.513900005,E4_Acc,2024-06-24 11:34:30.455060005,-10.0,-63.0,12.0
1904-01-01 00:12:57.545160019,E4_Acc,2024-06-24 11:34:30.486320019,-10.0,-63.0,12.0
1904-01-01 00:12:57.576410019,E4_Acc,2024-06-24 11:34:30.517570019,-10.0,-63.0,12.0
1904-01-01 00:12:57.607660019,E4_Acc,2024-06-24 11:34:30.548820019,-10.0,-63.0,12.0
1904-01-01 00:12:57.638910019,E4_Acc,2024-06-24 11:34:30.580070019,-10.0,-63.0,12.0
1904-01-01 00:12:57.670160019,E4_Acc,2024-06-24 11:34:30.611320019,-10.0,-63.0,12.0
1904-01-01 00:12:57.701410019,E4_Acc,2024-06-24 11:34:30.642570019,-10.0,-63.0,13.0
1904-01-01 00:12:57.732660019,E4_Acc,2024-06-24 11:34:30.673820019,-10.0,-63.0,13.0
1904-01-01 00:12:57.763920032,E4_Acc,2024-06-24 11:34:30.705080032,-10.0,-63.0,12.0
1904-01-01 00:12:57.795170032,E4_Acc,2024-06-24 11:34:30.736330032,-10.0,-63.0,11.0
1904-01-01 00:12:57.826420032,E4_Acc,2024-06-24 11:34:30.767580032,-10.0,-63.0,12.0
1904-01-01 00:12:57.857670032,E4_Acc,2024-06-24 11:34:30.798830032,-10.0,-63.0,12.0
1904-01-01 00:12:57.888920032,E4_Acc,2024-06-24 11:34:30.830080032,-10.0,-63.0,12.0
1904-01-01 00:12:57.920170032,E4_Acc,2024-06-24 11:34:30.861330032,-10.0,-63.0,12.0
1904-01-01 00:12:57.951430046,E4_Acc,2024-06-24 11:34:30.892590046,-10.0,-63.0,12.0
1904-01-01 00:12:57.982680046,E4_Acc,2024-06-24 11:34:30.923840046,-10.0,-63.0,12.0
1904-01-01 00:12:58.013930046,E4_Acc,2024-06-24 11:34:30.955090046,-10.0,-63.0,12.0
1904-01-01 00:12:58.045180046,E4_Acc,2024-06-24 11:34:30.986340046,-10.0,-63.0,12.0
1904-01-01 00:12:58.076430046,E4_Acc,2024-06-24 11:34:31.017590046,-10.0,-63.0,12.0
1904-01-01 00:12:58.107680046,E4_Acc,2024-06-24 11:34:31.048840046,-10.0,-63.0,12.0
1904-01-01 00:12:58.138930046,E4_Acc,2024-06-24 11:34:31.080090046,-10.0,-63.0,12.0
1904-01-01 00:12:58.170190060,E4_Acc,2024-06-24 11:34:31.111350060,-10.0,-63.0,12.0
1904-01-01 00:12:58.201440060,E4_Acc,2024-06-24 11:34:31.142600060,-10.0,-63.0,12.0
1904-01-01 00:12:58.232690060,E4_Acc,2024-06-24 11:34:31.173850060,-10.0,-63.0,12.0
1904-01-01 00:12:58.263940060,E4_Acc,2024-06-24 11:34:31.205100060,-10.0,-63.0,13.0
1904-01-01 00:12:58.295190060,E4_Acc,2024-06-24 11:34:31.236350060,-10.0,-63.0,12.0
1904-01-01 00:12:58.326440059,E4_Acc,2024-06-24 11:34:31.267600059,-10.0,-63.0,12.0
1904-01-01 00:12:58.357690060,E4_Acc,2024-06-24 11:34:31.298850060,-10.0,-63.0,12.0
1904-01-01 00:12:58.388950073,E4_Acc,2024-06-24 11:34:31.330110073,-10.0,-63.0,12.0
1904-01-01 00:12:58.420200073,E4_Acc,2024-06-24 11:34:31.361360073,-10.0,-62.0,12.0
1904-01-01 00:12:58.451450073,E4_Acc,2024-06-24 11:34:31.392610073,-10.0,-63.0,12.0
1904-01-01 00:12:58.482700073,E4_Acc,2024-06-24 11:34:31.423860073,-10.0,-62.0,12.0
1904-01-01 00:12:58.513950073,E4_Acc,2024-06-24 11:34:31.455110073,-10.0,-63.0,12.0
1904-01-01 00:12:58.545200073,E4_Acc,2024-06-24 11:34:31.486360073,-10.0,-63.0,12.0
1904-01-01 00:12:58.576450072,E4_Acc,2024-06-24 11:34:31.517610072,-10.0,-63.0,13.0
1904-01-01 00:12:58.607710087,E4_Acc,2024-06-24 11:34:31.548870087,-10.0,-63.0,12.0
1904-01-01 00:12:58.638960087,E4_Acc,2024-06-24 11:34:31.580120087,-10.0,-62.0,12.0
1904-01-01 00:12:58.670210087,E4_Acc,2024-06-24 11:34:31.611370087,-10.0,-63.0,12.0
1904-01-01 00:12:58.701460087,E4_Acc,2024-06-24 11:34:31.642620087,-10.0,-63.0,12.0
1904-01-01 00:12:58.732710087,E4_Acc,2024-06-24 11:34:31.673870087,-11.0,-63.0,12.0
1904-01-01 00:12:58.763960087,E4_Acc,2024-06-24 11:34:31.705120087,-10.0,-63.0,12.0
1904-01-01 00:12:58.795210087,E4_Acc,2024-06-24 11:34:31.736370087,-10.0,-63.0,12.0
1904-01-01 00:12:58.826470100,E4_Acc,2024-06-24 11:34:31.767630100,-10.0,-63.0,12.0
1904-01-01 00:12:58.857720100,E4_Acc,2024-06-24 11:34:31.798880100,-10.0,-63.0,13.0
1904-01-01 00:12:58.888970100,E4_Acc,2024-06-24 11:34:31.830130100,-10.0,-63.0,12.0
1904-01-01 00:12:58.920220100,E4_Acc,2024-06-24 11:34:31.861380100,-10.0,-63.0,12.0
1904-01-01 00:12:58.951470100,E4_Acc,2024-06-24 11:34:31.892630100,-10.0,-63.0,12.0
1904-01-01 00:12:58.982720100,E4_Acc,2024-06-24 11:34:31.923880100,-10.0,-63.0,12.0
1904-01-01 00:12:59.013970100,E4_Acc,2024-06-24 11:34:31.955130100,-10.0,-63.0,12.0
1904-01-01 00:12:59.045230114,E4_Acc,2024-06-24 11:34:31.986390114,-10.0,-63.0,12.0
1904-01-01 00:12:59.076480114,E4_Acc,2024-06-24 11:34:32.017640114,-10.0,-63.0,12.0
1904-01-01 00:12:59.107730114,E4_Acc,2024-06-24 11:34:32.048890114,-10.0,-63.0,12.0
1904-01-01 00:12:59.138980114,E4_Acc,2024-06-24 11:34:32.080140114,-10.0,-63.0,11.0
1904-01-01 00:12:59.170230114,E4_Acc,2024-06-24 11:34:32.111390114,-10.0,-63.0,12.0
1904-01-01 00:12:59.201480114,E4_Acc,2024-06-24 11:34:32.142640114,-10.0,-63.0,12.0
1904-01-01 00:12:59.232730114,E4_Acc,2024-06-24 11:34:32.173890114,-10.0,-63.0,12.0
1904-01-01 00:12:59.263989889,E4_Acc,2024-06-24 11:34:32.205149889,-10.0,-63.0,12.0
1904-01-01 00:12:59.295239889,E4_Acc,2024-06-24 11:34:32.236399889,-10.0,-63.0,12.0
1904-01-01 00:12:59.326489888,E4_Acc,2024-06-24 11:34:32.267649888,-10.0,-63.0,12.0
1904-01-01 00:12:59.357739889,E4_Acc,2024-06-24 11:34:32.298899889,-10.0,-63.0,11.0
1904-01-01 00:12:59.388989889,E4_Acc,2024-06-24 11:34:32.330149889,-10.0,-63.0,12.0
1904-01-01 00:12:59.420239889,E4_Acc,2024-06-24 11:34:32.361399889,-10.0,-63.0,12.0
1904-01-01 00:12:59.451489889,E4_Acc,2024-06-24 11:34:32.392649889,-10.0,-63.0,12.0
1904-01-01 00:12:59.482749903,E4_Acc,2024-06-24 11:34:32.423909903,-10.0,-63.0,12.0
1904-01-01 00:12:59.513999903,E4_Acc,2024-06-24 11:34:32.455159903,-9.0,-63.0,12.0
1904-01-01 00:12:59.545249903,E4_Acc,2024-06-24 11:34:32.486409903,-9.0,-63.0,11.0
1904-01-01 00:12:59.576499903,E4_Acc,2024-06-24 11:34:32.517659903,-9.0,-63.0,11.0
1904-01-01 00:12:59.607749903,E4_Acc,2024-06-24 11:34:32.548909903,-9.0,-64.0,12.0
1904-01-01 00:12:59.638999903,E4_Acc,2024-06-24 11:34:32.580159903,-9.0,-64.0,12.0
1904-01-01 00:12:59.670249903,E4_Acc,2024-06-24 11:34:32.611409903,-9.0,-63.0,12.0
1904-01-01 00:12:59.701509916,E4_Acc,2024-06-24 11:34:32.642669916,-10.0,-63.0,11.0
1904-01-01 00:12:59.732759916,E4_Acc,2024-06-24 11:34:32.673919916,-10.0,-63.0,11.0
1904-01-01 00:12:59.764009916,E4_Acc,2024-06-24 11:34:32.705169916,-10.0,-63.0,10.0
1904-01-01 00:12:59.795259916,E4_Acc,2024-06-24 11:34:32.736419916,-10.0,-63.0,10.0
1904-01-01 00:12:59.826509916,E4_Acc,2024-06-24 11:34:32.767669916,-10.0,-63.0,11.0
1904-01-01 00:12:59.857759916,E4_Acc,2024-06-24 11:34:32.798919916,-10.0,-63.0,11.0
1904-01-01 00:12:59.889009916,E4_Acc,2024-06-24 11:34:32.830169916,-9.0,-63.0,12.0
1904-01-01 00:12:59.920269930,E4_Acc,2024-06-24 11:34:32.861429930,-9.0,-64.0,12.0
1904-01-01 00:12:59.951519930,E4_Acc,2024-06-24 11:34:32.892679930,-10.0,-64.0,12.0
1904-01-01 00:12:59.982769930,E4_Acc,2024-06-24 11:34:32.923929930,-10.0,-63.0,12.0
1904-01-01 00:13:00.014019930,E4_Acc,2024-06-24 11:34:32.955179930,-10.0,-63.0,11.0
1904-01-01 00:13:00.045269930,E4_Acc,2024-06-24 11:34:32.986429930,-9.0,-63.0,11.0
1904-01-01 00:13:00.076519930,E4_Acc,2024-06-24 11:34:33.017679930,-10.0,-63.0,11.0
1904-01-01 00:13:00.107769930,E4_Acc,2024-06-24 11:34:33.048929930,-10.0,-63.0,11.0
1904-01-01 00:13:00.139029943,E4_Acc,2024-06-24 11:34:33.080189943,-10.0,-63.0,12.0
1904-01-01 00:13:00.170279943,E4_Acc,2024-06-24 11:34:33.111439943,-9.0,-63.0,12.0
1904-01-01 00:13:00.201529943,E4_Acc,2024-06-24 11:34:33.142689943,-9.0,-63.0,12.0
1904-01-01 00:13:00.232779943,E4_Acc,2024-06-24 11:34:33.173939943,-9.0,-63.0,11.0
1904-01-01 00:13:00.264029943,E4_Acc,2024-06-24 11:34:33.205189943,-9.0,-63.0,11.0
1904-01-01 00:13:00.295279943,E4_Acc,2024-06-24 11:34:33.236439943,-10.0,-63.0,11.0
1904-01-01 00:13:00.326529943,E4_Acc,2024-06-24 11:34:33.267689943,-10.0,-63.0,10.0
1904-01-01 00:13:00.357789957,E4_Acc,2024-06-24 11:34:33.298949957,-9.0,-63.0,11.0
1904-01-01 00:13:00.389039957,E4_Acc,2024-06-24 11:34:33.330199957,-9.0,-63.0,11.0
1904-01-01 00:13:00.420289957,E4_Acc,2024-06-24 11:34:33.361449957,-9.0,-63.0,11.0
1904-01-01 00:13:00.451539957,E4_Acc,2024-06-24 11:34:33.392699957,-9.0,-63.0,12.0
1904-01-01 00:13:00.482789957,E4_Acc,2024-06-24 11:34:33.423949957,-9.0,-63.0,12.0
1904-01-01 00:13:00.514039957,E4_Acc,2024-06-24 11:34:33.455199957,-9.0,-63.0,11.0
1904-01-01 00:13:00.545289957,E4_Acc,2024-06-24 11:34:33.486449957,-10.0,-63.0,11.0
1904-01-01 00:13:00.576549969,E4_Acc,2024-06-24 11:34:33.517709969,-10.0,-63.0,11.0
1904-01-01 00:13:00.607799970,E4_Acc,2024-06-24 11:34:33.548959970,-9.0,-63.0,11.0
1904-01-01 00:13:00.639049970,E4_Acc,2024-06-24 11:34:33.580209970,-10.0,-63.0,11.0
1904-01-01 00:13:00.670299970,E4_Acc,2024-06-24 11:34:33.611459970,-10.0,-63.0,11.0
1904-01-01 00:13:00.701549970,E4_Acc,2024-06-24 11:34:33.642709970,-9.0,-63.0,12.0
1904-01-01 00:13:00.732799970,E4_Acc,2024-06-24 11:34:33.673959970,-9.0,-63.0,12.0
1904-01-01 00:13:00.764059984,E4_Acc,2024-06-24 11:34:33.705219984,-9.0,-63.0,12.0
1904-01-01 00:13:00.795309984,E4_Acc,2024-06-24 11:34:33.736469984,-9.0,-63.0,11.0
1904-01-01 00:13:00.826559984,E4_Acc,2024-06-24 11:34:33.767719984,-9.0,-63.0,11.0
1904-01-01 00:13:00.857809984,E4_Acc,2024-06-24 11:34:33.798969984,-10.0,-63.0,11.0
1904-01-01 00:13:00.889059984,E4_Acc,2024-06-24 11:34:33.830219984,-10.0,-63.0,11.0
1904-01-01 00:13:00.920309984,E4_Acc,2024-06-24 11:34:33.861469984,-10.0,-63.0,12.0
1904-01-01 00:13:00.951559984,E4_Acc,2024-06-24 11:34:33.892719984,-10.0,-63.0,11.0
1904-01-01 00:13:00.982819998,E4_Acc,2024-06-24 11:34:33.923979998,-9.0,-63.0,12.0
1904-01-01 00:13:01.014069998,E4_Acc,2024-06-24 11:34:33.955229998,-9.0,-63.0,12.0
1904-01-01 00:13:01.045319998,E4_Acc,2024-06-24 11:34:33.986479998,-9.0,-63.0,12.0
1904-01-01 00:13:01.076569998,E4_Acc,2024-06-24 11:34:34.017729998,-9.0,-63.0,12.0
1904-01-01 00:13:01.107819998,E4_Acc,2024-06-24 11:34:34.048979998,-10.0,-63.0,12.0
1904-01-01 00:13:01.139069998,E4_Acc,2024-06-24 11:34:34.080229998,-9.0,-63.0,12.0
1904-01-01 00:13:01.170319998,E4_Acc,2024-06-24 11:34:34.111479998,-10.0,-63.0,11.0
1904-01-01 00:13:01.201580011,E4_Acc,2024-06-24 11:34:34.142740011,-10.0,-63.0,12.0
1904-01-01 00:13:01.232830011,E4_Acc,2024-06-24 11:34:34.173990011,-10.0,-63.0,12.0
1904-01-01 00:13:01.264080011,E4_Acc,2024-06-24 11:34:34.205240011,-10.0,-63.0,11.0
1904-01-01 00:13:01.295330011,E4_Acc,2024-06-24 11:34:34.236490011,-10.0,-63.0,12.0
1904-01-01 00:13:01.326580011,E4_Acc,2024-06-24 11:34:34.267740011,-10.0,-63.0,12.0
1904-01-01 00:13:01.357830011,E4_Acc,2024-06-24 11:34:34.298990011,-10.0,-63.0,12.0
1904-01-01 00:13:01.389080011,E4_Acc,2024-06-24 11:34:34.330240011,-10.0,-63.0,12.0
1904-01-01 00:13:01.420340025,E4_Acc,2024-06-24 11:34:34.361500025,-10.0,-63.0,12.0
1904-01-01 00:13:01.451590025,E4_Acc,2024-06-24 11:34:34.392750025,-10.0,-63.0,12.0
1904-01-01 00:13:01.482840025,E4_Acc,2024-06-24 11:34:34.424000025,-10.0,-63.0,12.0
1904-01-01 00:13:01.514090025,E4_Acc,2024-06-24 11:34:34.455250025,-10.0,-63.0,12.0
1904-01-01 00:13:01.545340025,E4_Acc,2024-06-24 11:34:34.486500025,-10.0,-63.0,12.0
1904-01-01 00:13:01.576590025,E4_Acc,2024-06-24 11:34:34.517750025,-10.0,-63.0,12.0
1904-01-01 00:13:01.607840025,E4_Acc,2024-06-24 11:34:34.549000025,-10.0,-63.0,12.0
1904-01-01 00:13:01.639100038,E4_Acc,2024-06-24 11:34:34.580260038,-9.0,-63.0,12.0
1904-01-01 00:13:01.670350038,E4_Acc,2024-06-24 11:34:34.611510038,-8.0,-63.0,12.0
1904-01-01 00:13:01.701600038,E4_Acc,2024-06-24 11:34:34.642760038,-8.0,-63.0,12.0
1904-01-01 00:13:01.732850038,E4_Acc,2024-06-24 11:34:34.674010038,-8.0,-63.0,12.0
1904-01-01 00:13:01.764100038,E4_Acc,2024-06-24 11:34:34.705260038,-9.0,-63.0,12.0
1904-01-01 00:13:01.795350038,E4_Acc,2024-06-24 11:34:34.736510038,-10.0,-63.0,12.0
1904-01-01 00:13:01.826600038,E4_Acc,2024-06-24 11:34:34.767760038,-10.0,-63.0,12.0
1904-01-01 00:13:01.857860052,E4_Acc,2024-06-24 11:34:34.799020052,-10.0,-63.0,12.0
1904-01-01 00:13:01.889110052,E4_Acc,2024-06-24 11:34:34.830270052,-10.0,-63.0,11.0
1904-01-01 00:13:01.920360052,E4_Acc,2024-06-24 11:34:34.861520052,-10.0,-63.0,12.0
1904-01-01 00:13:01.951610052,E4_Acc,2024-06-24 11:34:34.892770052,-10.0,-63.0,12.0
1904-01-01 00:13:01.982860052,E4_Acc,2024-06-24 11:34:34.924020052,-10.0,-63.0,12.0
1904-01-01 00:13:02.014110052,E4_Acc,2024-06-24 11:34:34.955270052,-9.0,-63.0,13.0
1904-01-01 00:13:02.045360052,E4_Acc,2024-06-24 11:34:34.986520052,-10.0,-63.0,12.0
1904-01-01 00:13:02.076620066,E4_Acc,2024-06-24 11:34:35.017780066,-10.0,-63.0,11.0
1904-01-01 00:13:02.107870066,E4_Acc,2024-06-24 11:34:35.049030066,-10.0,-63.0,11.0
1904-01-01 00:13:02.139120066,E4_Acc,2024-06-24 11:34:35.080280066,-10.0,-63.0,11.0
1904-01-01 00:13:02.170370066,E4_Acc,2024-06-24 11:34:35.111530066,-10.0,-63.0,12.0
1904-01-01 00:13:02.201620066,E4_Acc,2024-06-24 11:34:35.142780066,-10.0,-63.0,12.0
1904-01-01 00:13:02.232870066,E4_Acc,2024-06-24 11:34:35.174030066,-9.0,-63.0,12.0
1904-01-01 00:13:02.264120066,E4_Acc,2024-06-24 11:34:35.205280066,-10.0,-63.0,12.0
1904-01-01 00:13:02.295380079,E4_Acc,2024-06-24 11:34:35.236540079,-10.0,-63.0,12.0
1904-01-01 00:13:02.326630079,E4_Acc,2024-06-24 11:34:35.267790079,-10.0,-63.0,12.0
1904-01-01 00:13:02.357880079,E4_Acc,2024-06-24 11:34:35.299040079,-10.0,-63.0,12.0
1904-01-01 00:13:02.389130079,E4_Acc,2024-06-24 11:34:35.330290079,-10.0,-63.0,12.0
1904-01-01 00:13:02.420380079,E4_Acc,2024-06-24 11:34:35.361540079,-10.0,-63.0,12.0
1904-01-01 00:13:02.451630079,E4_Acc,2024-06-24 11:34:35.392790079,-10.0,-63.0,11.0
1904-01-01 00:13:02.482880079,E4_Acc,2024-06-24 11:34:35.424040079,-10.0,-63.0,11.0
1904-01-01 00:13:02.514140093,E4_Acc,2024-06-24 11:34:35.455300093,-9.0,-63.0,11.0
1904-01-01 00:13:02.545390093,E4_Acc,2024-06-24 11:34:35.486550093,-10.0,-63.0,11.0
1904-01-01 00:13:02.576640092,E4_Acc,2024-06-24 11:34:35.517800092,-10.0,-64.0,12.0
1904-01-01 00:13:02.607890093,E4_Acc,2024-06-24 11:34:35.549050093,-10.0,-63.0,12.0
1904-01-01 00:13:02.639140093,E4_Acc,2024-06-24 11:34:35.580300093,-10.0,-63.0,11.0
1904-01-01 00:13:02.670390093,E4_Acc,2024-06-24 11:34:35.611550093,-10.0,-63.0,11.0
1904-01-01 00:13:02.701640093,E4_Acc,2024-06-24 11:34:35.642800093,-10.0,-63.0,12.0
1904-01-01 00:13:02.732900106,E4_Acc,2024-06-24 11:34:35.674060106,-10.0,-63.0,12.0
1904-01-01 00:13:02.764150106,E4_Acc,2024-06-24 11:34:35.705310106,-9.0,-63.0,11.0
1904-01-01 00:13:02.795400106,E4_Acc,2024-06-24 11:34:35.736560106,-9.0,-63.0,12.0
1904-01-01 00:13:02.826650106,E4_Acc,2024-06-24 11:34:35.767810106,-9.0,-63.0,12.0
1904-01-01 00:13:02.857900106,E4_Acc,2024-06-24 11:34:35.799060106,-9.0,-63.0,11.0
1904-01-01 00:13:02.889150106,E4_Acc,2024-06-24 11:34:35.830310106,-10.0,-64.0,11.0
1904-01-01 00:13:02.920409881,E4_Acc,2024-06-24 11:34:35.861569881,-10.0,-63.0,11.0
1904-01-01 00:13:02.951659881,E4_Acc,2024-06-24 11:34:35.892819881,-10.0,-63.0,11.0
1904-01-01 00:13:02.982909881,E4_Acc,2024-06-24 11:34:35.924069881,-10.0,-63.0,11.0
1904-01-01 00:13:03.014159881,E4_Acc,2024-06-24 11:34:35.955319881,-10.0,-63.0,11.0
1904-01-01 00:13:03.045409881,E4_Acc,2024-06-24 11:34:35.986569881,-10.0,-63.0,10.0
1904-01-01 00:13:03.076659881,E4_Acc,2024-06-24 11:34:36.017819881,-10.0,-63.0,10.0
1904-01-01 00:13:03.107909881,E4_Acc,2024-06-24 11:34:36.049069881,-9.0,-63.0,10.0
1904-01-01 00:13:03.139169895,E4_Acc,2024-06-24 11:34:36.080329895,-9.0,-63.0,10.0
1904-01-01 00:13:03.170419895,E4_Acc,2024-06-24 11:34:36.111579895,-10.0,-63.0,10.0
1904-01-01 00:13:03.201669895,E4_Acc,2024-06-24 11:34:36.142829895,-10.0,-63.0,11.0
1904-01-01 00:13:03.232919895,E4_Acc,2024-06-24 11:34:36.174079895,-10.0,-63.0,11.0
1904-01-01 00:13:03.264169895,E4_Acc,2024-06-24 11:34:36.205329895,-10.0,-63.0,11.0
1904-01-01 00:13:03.295419895,E4_Acc,2024-06-24 11:34:36.236579895,-11.0,-63.0,10.0
1904-01-01 00:13:03.326669894,E4_Acc,2024-06-24 11:34:36.267829894,-10.0,-63.0,11.0
1904-01-01 00:13:03.357929909,E4_Acc,2024-06-24 11:34:36.299089909,-11.0,-63.0,10.0
1904-01-01 00:13:03.389179909,E4_Acc,2024-06-24 11:34:36.330339909,-10.0,-63.0,11.0
1904-01-01 00:13:03.420429909,E4_Acc,2024-06-24 11:34:36.361589909,-10.0,-63.0,11.0
1904-01-01 00:13:03.451679909,E4_Acc,2024-06-24 11:34:36.392839909,-9.0,-64.0,11.0
1904-01-01 00:13:03.482929909,E4_Acc,2024-06-24 11:34:36.424089909,-9.0,-64.0,11.0
1904-01-01 00:13:03.514179909,E4_Acc,2024-06-24 11:34:36.455339909,-9.0,-64.0,11.0
1904-01-01 00:13:03.545429909,E4_Acc,2024-06-24 11:34:36.486589909,-9.0,-63.0,11.0
1904-01-01 00:13:03.576689922,E4_Acc,2024-06-24 11:34:36.517849922,-9.0,-63.0,10.0
1904-01-01 00:13:03.607939922,E4_Acc,2024-06-24 11:34:36.549099922,-10.0,-64.0,10.0
1904-01-01 00:13:03.639189922,E4_Acc,2024-06-24 11:34:36.580349922,-10.0,-64.0,9.0
1904-01-01 00:13:03.670439922,E4_Acc,2024-06-24 11:34:36.611599922,-9.0,-63.0,10.0
1904-01-01 00:13:03.701689922,E4_Acc,2024-06-24 11:34:36.642849922,-9.0,-63.0,10.0
1904-01-01 00:13:03.732939922,E4_Acc,2024-06-24 11:34:36.674099922,-10.0,-63.0,10.0
1904-01-01 00:13:03.764189922,E4_Acc,2024-06-24 11:34:36.705349922,-9.0,-63.0,10.0
1904-01-01 00:13:03.795449936,E4_Acc,2024-06-24 11:34:36.736609936,-9.0,-64.0,9.0
1904-01-01 00:13:03.826699936,E4_Acc,2024-06-24 11:34:36.767859936,-9.0,-63.0,9.0
1904-01-01 00:13:03.857949936,E4_Acc,2024-06-24 11:34:36.799109936,-9.0,-63.0,9.0
1904-01-01 00:13:03.889199936,E4_Acc,2024-06-24 11:34:36.830359936,-9.0,-63.0,10.0
1904-01-01 00:13:03.920449936,E4_Acc,2024-06-24 11:34:36.861609936,-9.0,-63.0,10.0
1904-01-01 00:13:03.951699936,E4_Acc,2024-06-24 11:34:36.892859936,-9.0,-64.0,10.0
1904-01-01 00:13:03.982949936,E4_Acc,2024-06-24 11:34:36.924109936,-10.0,-64.0,10.0
1904-01-01 00:13:04.014209949,E4_Acc,2024-06-24 11:34:36.955369949,-10.0,-64.0,9.0
1904-01-01 00:13:04.045459949,E4_Acc,2024-06-24 11:34:36.986619949,-10.0,-63.0,9.0
1904-01-01 00:13:04.076709949,E4_Acc,2024-06-24 11:34:37.017869949,-9.0,-63.0,10.0
1904-01-01 00:13:04.107959949,E4_Acc,2024-06-24 11:34:37.049119949,-10.0,-63.0,9.0
1904-01-01 00:13:04.139209949,E4_Acc,2024-06-24 11:34:37.080369949,-9.0,-63.0,9.0
1904-01-01 00:13:04.170459949,E4_Acc,2024-06-24 11:34:37.111619949,-9.0,-64.0,10.0
1904-01-01 00:13:04.201709949,E4_Acc,2024-06-24 11:34:37.142869949,-9.0,-64.0,10.0
1904-01-01 00:13:04.232969963,E4_Acc,2024-06-24 11:34:37.174129963,-9.0,-64.0,10.0
1904-01-01 00:13:04.264219963,E4_Acc,2024-06-24 11:34:37.205379963,-9.0,-64.0,10.0
1904-01-01 00:13:04.295469963,E4_Acc,2024-06-24 11:34:37.236629963,-9.0,-63.0,10.0
1904-01-01 00:13:04.326719963,E4_Acc,2024-06-24 11:34:37.267879963,-9.0,-63.0,10.0
1904-01-01 00:13:04.357969963,E4_Acc,2024-06-24 11:34:37.299129963,-9.0,-64.0,9.0
1904-01-01 00:13:04.389219963,E4_Acc,2024-06-24 11:34:37.330379963,-9.0,-64.0,9.0
1904-01-01 00:13:04.420469963,E4_Acc,2024-06-24 11:34:37.361629963,-9.0,-64.0,10.0
1904-01-01 00:13:04.451729977,E4_Acc,2024-06-24 11:34:37.392889977,-9.0,-63.0,10.0
1904-01-01 00:13:04.482979977,E4_Acc,2024-06-24 11:34:37.424139977,-9.0,-63.0,10.0
1904-01-01 00:13:04.514229977,E4_Acc,2024-06-24 11:34:37.455389977,-9.0,-63.0,10.0
1904-01-01 00:13:04.545479977,E4_Acc,2024-06-24 11:34:37.486639977,-9.0,-64.0,10.0
1904-01-01 00:13:04.576729976,E4_Acc,2024-06-24 11:34:37.517889976,-9.0,-63.0,10.0
1904-01-01 00:13:04.607979977,E4_Acc,2024-06-24 11:34:37.549139977,-9.0,-63.0,10.0
1904-01-01 00:13:04.639229977,E4_Acc,2024-06-24 11:34:37.580389977,-9.0,-63.0,10.0
1904-01-01 00:13:04.670489990,E4_Acc,2024-06-24 11:34:37.611649990,-9.0,-63.0,10.0
1904-01-01 00:13:04.701739990,E4_Acc,2024-06-24 11:34:37.642899990,-9.0,-63.0,9.0
1904-01-01 00:13:04.732989990,E4_Acc,2024-06-24 11:34:37.674149990,-9.0,-63.0,9.0
1904-01-01 00:13:04.764239990,E4_Acc,2024-06-24 11:34:37.705399990,-9.0,-63.0,10.0
1904-01-01 00:13:04.795489990,E4_Acc,2024-06-24 11:34:37.736649990,-9.0,-63.0,10.0
1904-01-01 00:13:04.826739990,E4_Acc,2024-06-24 11:34:37.767899990,-8.0,-63.0,10.0
1904-01-01 00:13:04.857989990,E4_Acc,2024-06-24 11:34:37.799149990,-8.0,-63.0,10.0
1904-01-01 00:13:04.889250004,E4_Acc,2024-06-24 11:34:37.830410004,-8.0,-63.0,10.0
1904-01-01 00:13:04.920500004,E4_Acc,2024-06-24 11:34:37.861660004,-8.0,-63.0,10.0
1904-01-01 00:13:04.951750004,E4_Acc,2024-06-24 11:34:37.892910004,-8.0,-64.0,10.0
1904-01-01 00:13:04.983000004,E4_Acc,2024-06-24 11:34:37.924160004,-8.0,-63.0,10.0
1904-01-01 00:13:05.014250004,E4_Acc,2024-06-24 11:34:37.955410004,-8.0,-63.0,10.0
1904-01-01 00:13:05.045500004,E4_Acc,2024-06-24 11:34:37.986660004,-8.0,-63.0,10.0
1904-01-01 00:13:05.076750004,E4_Acc,2024-06-24 11:34:38.017910004,-9.0,-63.0,9.0
1904-01-01 00:13:05.108010017,E4_Acc,2024-06-24 11:34:38.049170017,-9.0,-63.0,10.0
1904-01-01 00:13:05.139260017,E4_Acc,2024-06-24 11:34:38.080420017,-9.0,-63.0,10.0
1904-01-01 00:13:05.170510017,E4_Acc,2024-06-24 11:34:38.111670017,-9.0,-64.0,10.0
1904-01-01 00:13:05.201760017,E4_Acc,2024-06-24 11:34:38.142920017,-9.0,-63.0,10.0
1904-01-01 00:13:05.233010017,E4_Acc,2024-06-24 11:34:38.174170017,-9.0,-63.0,11.0
1904-01-01 00:13:05.264260017,E4_Acc,2024-06-24 11:34:38.205420017,-9.0,-63.0,11.0
1904-01-01 00:13:05.295520031,E4_Acc,2024-06-24 11:34:38.236680031,-9.0,-64.0,11.0
1904-01-01 00:13:05.326770031,E4_Acc,2024-06-24 11:34:38.267930031,-9.0,-64.0,11.0
1904-01-01 00:13:05.358020031,E4_Acc,2024-06-24 11:34:38.299180031,-9.0,-64.0,11.0
1904-01-01 00:13:05.389270031,E4_Acc,2024-06-24 11:34:38.330430031,-9.0,-63.0,10.0
1904-01-01 00:13:05.420520031,E4_Acc,2024-06-24 11:34:38.361680031,-9.0,-63.0,10.0
1904-01-01 00:13:05.451770031,E4_Acc,2024-06-24 11:34:38.392930031,-9.0,-63.0,10.0
1904-01-01 00:13:05.483020031,E4_Acc,2024-06-24 11:34:38.424180031,-9.0,-64.0,10.0
1904-01-01 00:13:05.514280044,E4_Acc,2024-06-24 11:34:38.455440044,-9.0,-64.0,11.0
1904-01-01 00:13:05.545530044,E4_Acc,2024-06-24 11:34:38.486690044,-9.0,-64.0,11.0
1904-01-01 00:13:05.576780044,E4_Acc,2024-06-24 11:34:38.517940044,-9.0,-63.0,11.0
1904-01-01 00:13:05.608030044,E4_Acc,2024-06-24 11:34:38.549190044,-9.0,-63.0,11.0
1904-01-01 00:13:05.639280044,E4_Acc,2024-06-24 11:34:38.580440044,-9.0,-63.0,11.0
1904-01-01 00:13:05.670530044,E4_Acc,2024-06-24 11:34:38.611690044,-9.0,-63.0,11.0
1904-01-01 00:13:05.701780044,E4_Acc,2024-06-24 11:34:38.642940044,-9.0,-63.0,11.0
1904-01-01 00:13:05.733040058,E4_Acc,2024-06-24 11:34:38.674200058,-9.0,-63.0,11.0
1904-01-01 00:13:05.764290058,E4_Acc,2024-06-24 11:34:38.705450058,-9.0,-63.0,10.0
1904-01-01 00:13:05.795540058,E4_Acc,2024-06-24 11:34:38.736700058,-9.0,-63.0,11.0
1904-01-01 00:13:05.826790058,E4_Acc,2024-06-24 11:34:38.767950058,-9.0,-63.0,11.0
1904-01-01 00:13:05.858040058,E4_Acc,2024-06-24 11:34:38.799200058,-9.0,-63.0,11.0
1904-01-01 00:13:05.889290058,E4_Acc,2024-06-24 11:34:38.830450058,-9.0,-64.0,11.0
1904-01-01 00:13:05.920540058,E4_Acc,2024-06-24 11:34:38.861700058,-8.0,-64.0,11.0
1904-01-01 00:13:05.951800072,E4_Acc,2024-06-24 11:34:38.892960072,-8.0,-63.0,11.0
1904-01-01 00:13:05.983050072,E4_Acc,2024-06-24 11:34:38.924210072,-8.0,-63.0,11.0
1904-01-01 00:13:06.014300072,E4_Acc,2024-06-24 11:34:38.955460072,-9.0,-64.0,10.0
1904-01-01 00:13:06.045550072,E4_Acc,2024-06-24 11:34:38.986710072,-8.0,-64.0,10.0
1904-01-01 00:13:06.076800072,E4_Acc,2024-06-24 11:34:39.017960072,-9.0,-64.0,10.0
1904-01-01 00:13:06.108050072,E4_Acc,2024-06-24 11:34:39.049210072,-9.0,-63.0,11.0
1904-01-01 00:13:06.139300072,E4_Acc,2024-06-24 11:34:39.080460072,-8.0,-63.0,11.0
1904-01-01 00:13:06.170560085,E4_Acc,2024-06-24 11:34:39.111720085,-8.0,-63.0,11.0
1904-01-01 00:13:06.201810085,E4_Acc,2024-06-24 11:34:39.142970085,-9.0,-63.0,10.0
1904-01-01 00:13:06.233060085,E4_Acc,2024-06-24 11:34:39.174220085,-9.0,-64.0,11.0
1904-01-01 00:13:06.264310085,E4_Acc,2024-06-24 11:34:39.205470085,-8.0,-63.0,11.0
1904-01-01 00:13:06.295560085,E4_Acc,2024-06-24 11:34:39.236720085,-8.0,-63.0,10.0
1904-01-01 00:13:06.326810085,E4_Acc,2024-06-24 11:34:39.267970085,-9.0,-63.0,11.0
1904-01-01 00:13:06.358060085,E4_Acc,2024-06-24 11:34:39.299220085,-9.0,-63.0,11.0
1904-01-01 00:13:06.389320099,E4_Acc,2024-06-24 11:34:39.330480099,-9.0,-64.0,11.0
1904-01-01 00:13:06.420570099,E4_Acc,2024-06-24 11:34:39.361730099,-9.0,-64.0,11.0
1904-01-01 00:13:06.451820099,E4_Acc,2024-06-24 11:34:39.392980099,-9.0,-63.0,11.0
1904-01-01 00:13:06.483070099,E4_Acc,2024-06-24 11:34:39.424230099,-9.0,-63.0,11.0
1904-01-01 00:13:06.514320099,E4_Acc,2024-06-24 11:34:39.455480099,-9.0,-63.0,11.0
1904-01-01 00:13:06.545570099,E4_Acc,2024-06-24 11:34:39.486730099,-9.0,-63.0,11.0
1904-01-01 00:13:06.576820099,E4_Acc,2024-06-24 11:34:39.517980099,-9.0,-64.0,11.0
1904-01-01 00:13:06.608080112,E4_Acc,2024-06-24 11:34:39.549240112,-9.0,-63.0,12.0
1904-01-01 00:13:06.639330112,E4_Acc,2024-06-24 11:34:39.580490112,-9.0,-63.0,11.0
1904-01-01 00:13:06.670580112,E4_Acc,2024-06-24 11:34:39.611740112,-9.0,-63.0,11.0
1904-01-01 00:13:06.701830112,E4_Acc,2024-06-24 11:34:39.642990112,-9.0,-63.0,11.0
1904-01-01 00:13:06.733080112,E4_Acc,2024-06-24 11:34:39.674240112,-9.0,-63.0,11.0
1904-01-01 00:13:06.764330112,E4_Acc,2024-06-24 11:34:39.705490112,-9.0,-63.0,11.0
1904-01-01 00:13:06.795580112,E4_Acc,2024-06-24 11:34:39.736740112,-9.0,-64.0,11.0
1904-01-01 00:13:06.826839887,E4_Acc,2024-06-24 11:34:39.767999887,-9.0,-63.0,11.0
1904-01-01 00:13:06.858089887,E4_Acc,2024-06-24 11:34:39.799249887,-9.0,-63.0,11.0
1904-01-01 00:13:06.889339887,E4_Acc,2024-06-24 11:34:39.830499887,-9.0,-63.0,11.0
1904-01-01 00:13:06.920589887,E4_Acc,2024-06-24 11:34:39.861749887,-9.0,-63.0,11.0
1904-01-01 00:13:06.951839887,E4_Acc,2024-06-24 11:34:39.892999887,-9.0,-63.0,11.0
1904-01-01 00:13:06.983089887,E4_Acc,2024-06-24 11:34:39.924249887,-9.0,-63.0,11.0
1904-01-01 00:13:07.014339887,E4_Acc,2024-06-24 11:34:39.955499887,-9.0,-63.0,11.0
1904-01-01 00:13:07.045599901,E4_Acc,2024-06-24 11:34:39.986759901,-9.0,-63.0,11.0
1904-01-01 00:13:07.076849901,E4_Acc,2024-06-24 11:34:40.018009901,-9.0,-63.0,11.0
1904-01-01 00:13:07.108099901,E4_Acc,2024-06-24 11:34:40.049259901,-8.0,-63.0,10.0
1904-01-01 00:13:07.139349901,E4_Acc,2024-06-24 11:34:40.080509901,-9.0,-63.0,11.0
1904-01-01 00:13:07.170599901,E4_Acc,2024-06-24 11:34:40.111759901,-8.0,-63.0,11.0
1904-01-01 00:13:07.201849901,E4_Acc,2024-06-24 11:34:40.143009901,-9.0,-64.0,11.0
1904-01-01 00:13:07.233099901,E4_Acc,2024-06-24 11:34:40.174259901,-9.0,-63.0,11.0
1904-01-01 00:13:07.264359915,E4_Acc,2024-06-24 11:34:40.205519915,-9.0,-63.0,11.0
1904-01-01 00:13:07.295609915,E4_Acc,2024-06-24 11:34:40.236769915,-9.0,-64.0,11.0
1904-01-01 00:13:07.326859915,E4_Acc,2024-06-24 11:34:40.268019915,-9.0,-63.0,11.0
1904-01-01 00:13:07.358109915,E4_Acc,2024-06-24 11:34:40.299269915,-9.0,-63.0,11.0
1904-01-01 00:13:07.389359915,E4_Acc,2024-06-24 11:34:40.330519915,-9.0,-63.0,11.0
1904-01-01 00:13:07.420609915,E4_Acc,2024-06-24 11:34:40.361769915,-9.0,-64.0,11.0
1904-01-01 00:13:07.451859915,E4_Acc,2024-06-24 11:34:40.393019915,-9.0,-63.0,11.0
1904-01-01 00:13:07.483119928,E4_Acc,2024-06-24 11:34:40.424279928,-9.0,-63.0,11.0
1904-01-01 00:13:07.514369928,E4_Acc,2024-06-24 11:34:40.455529928,-9.0,-63.0,11.0
1904-01-01 00:13:07.545619928,E4_Acc,2024-06-24 11:34:40.486779928,-9.0,-63.0,11.0
1904-01-01 00:13:07.576869928,E4_Acc,2024-06-24 11:34:40.518029928,-9.0,-63.0,11.0
1904-01-01 00:13:07.608119928,E4_Acc,2024-06-24 11:34:40.549279928,-9.0,-63.0,11.0
1904-01-01 00:13:07.639369928,E4_Acc,2024-06-24 11:34:40.580529928,-9.0,-63.0,11.0
1904-01-01 00:13:07.670619928,E4_Acc,2024-06-24 11:34:40.611779928,-9.0,-63.0,11.0
1904-01-01 00:13:07.701879942,E4_Acc,2024-06-24 11:34:40.643039942,-9.0,-63.0,11.0
1904-01-01 00:13:07.733129942,E4_Acc,2024-06-24 11:34:40.674289942,-9.0,-63.0,11.0
1904-01-01 00:13:07.764379942,E4_Acc,2024-06-24 11:34:40.705539942,-9.0,-63.0,11.0
1904-01-01 00:13:07.795629942,E4_Acc,2024-06-24 11:34:40.736789942,-9.0,-63.0,11.0
1904-01-01 00:13:07.826879942,E4_Acc,2024-06-24 11:34:40.768039942,-9.0,-64.0,11.0
1904-01-01 00:13:07.858129942,E4_Acc,2024-06-24 11:34:40.799289942,-9.0,-63.0,11.0
1904-01-01 00:13:07.889389955,E4_Acc,2024-06-24 11:34:40.830549955,-9.0,-63.0,11.0
1904-01-01 00:13:07.920639955,E4_Acc,2024-06-24 11:34:40.861799955,-9.0,-63.0,11.0
1904-01-01 00:13:07.951889955,E4_Acc,2024-06-24 11:34:40.893049955,-9.0,-63.0,11.0
1904-01-01 00:13:07.983139955,E4_Acc,2024-06-24 11:34:40.924299955,-9.0,-63.0,11.0
1904-01-01 00:13:08.014389955,E4_Acc,2024-06-24 11:34:40.955549955,-9.0,-63.0,11.0
1904-01-01 00:13:08.045639955,E4_Acc,2024-06-24 11:34:40.986799955,-9.0,-63.0,11.0
1904-01-01 00:13:08.076889955,E4_Acc,2024-06-24 11:34:41.018049955,-9.0,-63.0,11.0
1904-01-01 00:13:08.108149969,E4_Acc,2024-06-24 11:34:41.049309969,-8.0,-63.0,11.0
1904-01-01 00:13:08.139399969,E4_Acc,2024-06-24 11:34:41.080559969,-9.0,-63.0,11.0
1904-01-01 00:13:08.170649969,E4_Acc,2024-06-24 11:34:41.111809969,-9.0,-64.0,11.0
1904-01-01 00:13:08.201899969,E4_Acc,2024-06-24 11:34:41.143059969,-8.0,-64.0,11.0
1904-01-01 00:13:08.233149969,E4_Acc,2024-06-24 11:34:41.174309969,-9.0,-63.0,11.0
1904-01-01 00:13:08.264399969,E4_Acc,2024-06-24 11:34:41.205559969,-9.0,-63.0,11.0
1904-01-01 00:13:08.295649969,E4_Acc,2024-06-24 11:34:41.236809969,-9.0,-64.0,11.0
1904-01-01 00:13:08.326909983,E4_Acc,2024-06-24 11:34:41.268069983,-9.0,-63.0,11.0
1904-01-01 00:13:08.358159983,E4_Acc,2024-06-24 11:34:41.299319983,-9.0,-63.0,11.0
1904-01-01 00:13:08.389409983,E4_Acc,2024-06-24 11:34:41.330569983,-8.0,-64.0,11.0
1904-01-01 00:13:08.420659983,E4_Acc,2024-06-24 11:34:41.361819983,-8.0,-63.0,10.0
1904-01-01 00:13:08.451909983,E4_Acc,2024-06-24 11:34:41.393069983,-8.0,-63.0,10.0
1904-01-01 00:13:08.483159983,E4_Acc,2024-06-24 11:34:41.424319983,-8.0,-63.0,11.0
1904-01-01 00:13:08.514409983,E4_Acc,2024-06-24 11:34:41.455569983,-8.0,-63.0,11.0
1904-01-01 00:13:08.545669996,E4_Acc,2024-06-24 11:34:41.486829996,-8.0,-63.0,11.0
1904-01-01 00:13:08.576919996,E4_Acc,2024-06-24 11:34:41.518079996,-8.0,-64.0,11.0
1904-01-01 00:13:08.608169996,E4_Acc,2024-06-24 11:34:41.549329996,-8.0,-64.0,11.0
1904-01-01 00:13:08.639419996,E4_Acc,2024-06-24 11:34:41.580579996,-9.0,-63.0,11.0
1904-01-01 00:13:08.670669996,E4_Acc,2024-06-24 11:34:41.611829996,-9.0,-63.0,10.0
1904-01-01 00:13:08.701919996,E4_Acc,2024-06-24 11:34:41.643079996,-9.0,-63.0,10.0
1904-01-01 00:13:08.733169996,E4_Acc,2024-06-24 11:34:41.674329996,-8.0,-63.0,11.0
1904-01-01 00:13:08.764430010,E4_Acc,2024-06-24 11:34:41.705590010,-8.0,-63.0,11.0
1904-01-01 00:13:08.795680010,E4_Acc,2024-06-24 11:34:41.736840010,-9.0,-64.0,11.0
1904-01-01 00:13:08.826930010,E4_Acc,2024-06-24 11:34:41.768090010,-9.0,-64.0,12.0
1904-01-01 00:13:08.858180010,E4_Acc,2024-06-24 11:34:41.799340010,-9.0,-63.0,12.0
1904-01-01 00:13:08.889430010,E4_Acc,2024-06-24 11:34:41.830590010,-9.0,-63.0,12.0
1904-01-01 00:13:08.920680010,E4_Acc,2024-06-24 11:34:41.861840010,-9.0,-63.0,12.0
1904-01-01 00:13:08.951930010,E4_Acc,2024-06-24 11:34:41.893090010,-9.0,-63.0,11.0
1904-01-01 00:13:08.983190023,E4_Acc,2024-06-24 11:34:41.924350023,-9.0,-63.0,11.0
1904-01-01 00:13:09.014440023,E4_Acc,2024-06-24 11:34:41.955600023,-9.0,-63.0,11.0
1904-01-01 00:13:09.045690023,E4_Acc,2024-06-24 11:34:41.986850023,-9.0,-63.0,12.0
1904-01-01 00:13:09.076940023,E4_Acc,2024-06-24 11:34:42.018100023,-9.0,-63.0,12.0
1904-01-01 00:13:09.108190023,E4_Acc,2024-06-24 11:34:42.049350023,-9.0,-63.0,12.0
1904-01-01 00:13:09.139440023,E4_Acc,2024-06-24 11:34:42.080600023,-9.0,-63.0,12.0
1904-01-01 00:13:09.170690023,E4_Acc,2024-06-24 11:34:42.111850023,-9.0,-63.0,12.0
1904-01-01 00:13:09.201950037,E4_Acc,2024-06-24 11:34:42.143110037,-9.0,-63.0,12.0
1904-01-01 00:13:09.233200037,E4_Acc,2024-06-24 11:34:42.174360037,-9.0,-63.0,12.0
1904-01-01 00:13:09.264450037,E4_Acc,2024-06-24 11:34:42.205610037,-9.0,-63.0,12.0
1904-01-01 00:13:09.295700037,E4_Acc,2024-06-24 11:34:42.236860037,-10.0,-63.0,12.0
1904-01-01 00:13:09.326950037,E4_Acc,2024-06-24 11:34:42.268110037,-10.0,-63.0,11.0
1904-01-01 00:13:09.358200037,E4_Acc,2024-06-24 11:34:42.299360037,-10.0,-63.0,12.0
1904-01-01 00:13:09.389450037,E4_Acc,2024-06-24 11:34:42.330610037,-10.0,-63.0,12.0
1904-01-01 00:13:09.420710050,E4_Acc,2024-06-24 11:34:42.361870050,-10.0,-63.0,13.0
1904-01-01 00:13:09.451960050,E4_Acc,2024-06-24 11:34:42.393120050,-10.0,-63.0,12.0
1904-01-01 00:13:09.483210050,E4_Acc,2024-06-24 11:34:42.424370050,-10.0,-63.0,12.0
1904-01-01 00:13:09.514460050,E4_Acc,2024-06-24 11:34:42.455620050,-9.0,-63.0,12.0
1904-01-01 00:13:09.545710050,E4_Acc,2024-06-24 11:34:42.486870050,-9.0,-63.0,12.0
1904-01-01 00:13:09.576960050,E4_Acc,2024-06-24 11:34:42.518120050,-9.0,-63.0,12.0
1904-01-01 00:13:09.608210050,E4_Acc,2024-06-24 11:34:42.549370050,-9.0,-63.0,12.0
1904-01-01 00:13:09.639470064,E4_Acc,2024-06-24 11:34:42.580630064,-9.0,-63.0,12.0
1904-01-01 00:13:09.670720064,E4_Acc,2024-06-24 11:34:42.611880064,-9.0,-63.0,12.0
1904-01-01 00:13:09.701970064,E4_Acc,2024-06-24 11:34:42.643130064,-10.0,-63.0,12.0
1904-01-01 00:13:09.733220064,E4_Acc,2024-06-24 11:34:42.674380064,-9.0,-63.0,12.0
1904-01-01 00:13:09.764470064,E4_Acc,2024-06-24 11:34:42.705630064,-10.0,-63.0,12.0
1904-01-01 00:13:09.795720064,E4_Acc,2024-06-24 11:34:42.736880064,-10.0,-63.0,12.0
1904-01-01 00:13:09.826970064,E4_Acc,2024-06-24 11:34:42.768130064,-9.0,-63.0,12.0
1904-01-01 00:13:09.858230078,E4_Acc,2024-06-24 11:34:42.799390078,-10.0,-63.0,12.0
1904-01-01 00:13:09.889480078,E4_Acc,2024-06-24 11:34:42.830640078,-10.0,-63.0,12.0
1904-01-01 00:13:09.920730078,E4_Acc,2024-06-24 11:34:42.861890078,-9.0,-63.0,12.0
1904-01-01 00:13:09.951980078,E4_Acc,2024-06-24 11:34:42.893140078,-9.0,-63.0,12.0
1904-01-01 00:13:09.983230078,E4_Acc,2024-06-24 11:34:42.924390078,-9.0,-63.0,12.0
1904-01-01 00:13:10.014480078,E4_Acc,2024-06-24 11:34:42.955640078,-9.0,-63.0,12.0
1904-01-01 00:13:10.045730078,E4_Acc,2024-06-24 11:34:42.986890078,-9.0,-63.0,12.0
1904-01-01 00:13:10.076990091,E4_Acc,2024-06-24 11:34:43.018150091,-9.0,-63.0,12.0
1904-01-01 00:13:10.108240091,E4_Acc,2024-06-24 11:34:43.049400091,-9.0,-63.0,12.0
1904-01-01 00:13:10.139490091,E4_Acc,2024-06-24 11:34:43.080650091,-9.0,-63.0,12.0
1904-01-01 00:13:10.170740091,E4_Acc,2024-06-24 11:34:43.111900091,-10.0,-63.0,12.0
1904-01-01 00:13:10.201990091,E4_Acc,2024-06-24 11:34:43.143150091,-9.0,-63.0,12.0
1904-01-01 00:13:10.233240091,E4_Acc,2024-06-24 11:34:43.174400091,-9.0,-63.0,12.0
1904-01-01 00:13:10.264500105,E4_Acc,2024-06-24 11:34:43.205660105,-9.0,-63.0,12.0
1904-01-01 00:13:10.295750105,E4_Acc,2024-06-24 11:34:43.236910105,-9.0,-63.0,12.0
1904-01-01 00:13:10.327000104,E4_Acc,2024-06-24 11:34:43.268160104,-9.0,-63.0,12.0
1904-01-01 00:13:10.358250105,E4_Acc,2024-06-24 11:34:43.299410105,-9.0,-63.0,12.0
1904-01-01 00:13:10.389500105,E4_Acc,2024-06-24 11:34:43.330660105,-9.0,-63.0,12.0
1904-01-01 00:13:10.420750105,E4_Acc,2024-06-24 11:34:43.361910105,-9.0,-63.0,12.0
1904-01-01 00:13:10.452000105,E4_Acc,2024-06-24 11:34:43.393160105,-10.0,-63.0,12.0
1904-01-01 00:13:10.483260118,E4_Acc,2024-06-24 11:34:43.424420118,-9.0,-63.0,12.0
1904-01-01 00:13:10.514510118,E4_Acc,2024-06-24 11:34:43.455670118,-9.0,-63.0,12.0
1904-01-01 00:13:10.545760118,E4_Acc,2024-06-24 11:34:43.486920118,-9.0,-63.0,12.0
1904-01-01 00:13:10.577010118,E4_Acc,2024-06-24 11:34:43.518170118,-9.0,-63.0,12.0
1904-01-01 00:13:10.608260118,E4_Acc,2024-06-24 11:34:43.549420118,-9.0,-63.0,12.0
1904-01-01 00:13:10.639510118,E4_Acc,2024-06-24 11:34:43.580670118,-9.0,-63.0,12.0
1904-01-01 00:13:10.670760118,E4_Acc,2024-06-24 11:34:43.611920118,-9.0,-63.0,12.0
1904-01-01 00:13:10.702019893,E4_Acc,2024-06-24 11:34:43.643179893,-9.0,-63.0,13.0
1904-01-01 00:13:10.733269893,E4_Acc,2024-06-24 11:34:43.674429893,-9.0,-63.0,13.0
1904-01-01 00:13:10.764519893,E4_Acc,2024-06-24 11:34:43.705679893,-9.0,-63.0,13.0
1904-01-01 00:13:10.795769893,E4_Acc,2024-06-24 11:34:43.736929893,-9.0,-63.0,12.0
1904-01-01 00:13:10.827019893,E4_Acc,2024-06-24 11:34:43.768179893,-9.0,-63.0,12.0
1904-01-01 00:13:10.858269893,E4_Acc,2024-06-24 11:34:43.799429893,-10.0,-63.0,12.0
1904-01-01 00:13:10.889519893,E4_Acc,2024-06-24 11:34:43.830679893,-9.0,-63.0,12.0
1904-01-01 00:13:10.920779907,E4_Acc,2024-06-24 11:34:43.861939907,-9.0,-63.0,12.0
1904-01-01 00:13:10.952029907,E4_Acc,2024-06-24 11:34:43.893189907,-8.0,-63.0,12.0
1904-01-01 00:13:10.983279907,E4_Acc,2024-06-24 11:34:43.924439907,-8.0,-63.0,12.0
1904-01-01 00:13:11.014529907,E4_Acc,2024-06-24 11:34:43.955689907,-8.0,-63.0,12.0
1904-01-01 00:13:11.045779907,E4_Acc,2024-06-24 11:34:43.986939907,-8.0,-64.0,13.0
1904-01-01 00:13:11.077029907,E4_Acc,2024-06-24 11:34:44.018189907,-9.0,-64.0,13.0
1904-01-01 00:13:11.108279907,E4_Acc,2024-06-24 11:34:44.049439907,-9.0,-63.0,12.0
1904-01-01 00:13:11.139539921,E4_Acc,2024-06-24 11:34:44.080699921,-9.0,-63.0,12.0
1904-01-01 00:13:11.170789921,E4_Acc,2024-06-24 11:34:44.111949921,-9.0,-63.0,12.0
1904-01-01 00:13:11.202039921,E4_Acc,2024-06-24 11:34:44.143199921,-10.0,-63.0,12.0
1904-01-01 00:13:11.233289921,E4_Acc,2024-06-24 11:34:44.174449921,-9.0,-63.0,12.0
1904-01-01 00:13:11.264539921,E4_Acc,2024-06-24 11:34:44.205699921,-9.0,-63.0,13.0
1904-01-01 00:13:11.295789921,E4_Acc,2024-06-24 11:34:44.236949921,-9.0,-63.0,12.0
1904-01-01 00:13:11.327039921,E4_Acc,2024-06-24 11:34:44.268199921,-8.0,-63.0,12.0
1904-01-01 00:13:11.358299934,E4_Acc,2024-06-24 11:34:44.299459934,-8.0,-63.0,12.0
1904-01-01 00:13:11.389549934,E4_Acc,2024-06-24 11:34:44.330709934,-9.0,-63.0,12.0
1904-01-01 00:13:11.420799934,E4_Acc,2024-06-24 11:34:44.361959934,-9.0,-63.0,12.0
1904-01-01 00:13:11.452049934,E4_Acc,2024-06-24 11:34:44.393209934,-9.0,-63.0,12.0
1904-01-01 00:13:11.483299934,E4_Acc,2024-06-24 11:34:44.424459934,-9.0,-63.0,12.0
1904-01-01 00:13:11.514549934,E4_Acc,2024-06-24 11:34:44.455709934,-9.0,-63.0,12.0
1904-01-01 00:13:11.545799934,E4_Acc,2024-06-24 11:34:44.486959934,-9.0,-63.0,12.0
1904-01-01 00:13:11.577059948,E4_Acc,2024-06-24 11:34:44.518219948,-9.0,-63.0,12.0
1904-01-01 00:13:11.608309948,E4_Acc,2024-06-24 11:34:44.549469948,-9.0,-63.0,12.0
1904-01-01 00:13:11.639559948,E4_Acc,2024-06-24 11:34:44.580719948,-9.0,-63.0,12.0
1904-01-01 00:13:11.670809948,E4_Acc,2024-06-24 11:34:44.611969948,-8.0,-63.0,12.0
1904-01-01 00:13:11.702059948,E4_Acc,2024-06-24 11:34:44.643219948,-9.0,-63.0,12.0
1904-01-01 00:13:11.733309948,E4_Acc,2024-06-24 11:34:44.674469948,-9.0,-63.0,13.0
1904-01-01 00:13:11.764559948,E4_Acc,2024-06-24 11:34:44.705719948,-9.0,-63.0,13.0
1904-01-01 00:13:11.795819961,E4_Acc,2024-06-24 11:34:44.736979961,-9.0,-63.0,12.0
1904-01-01 00:13:11.827069961,E4_Acc,2024-06-24 11:34:44.768229961,-10.0,-63.0,12.0
1904-01-01 00:13:11.858319961,E4_Acc,2024-06-24 11:34:44.799479961,-10.0,-63.0,13.0
1904-01-01 00:13:11.889569961,E4_Acc,2024-06-24 11:34:44.830729961,-10.0,-63.0,12.0
1904-01-01 00:13:11.920819961,E4_Acc,2024-06-24 11:34:44.861979961,-10.0,-63.0,13.0
1904-01-01 00:13:11.952069961,E4_Acc,2024-06-24 11:34:44.893229961,-9.0,-63.0,13.0
1904-01-01 00:13:11.983319961,E4_Acc,2024-06-24 11:34:44.924479961,-9.0,-63.0,13.0
1904-01-01 00:13:12.014579975,E4_Acc,2024-06-24 11:34:44.955739975,-9.0,-63.0,13.0
1904-01-01 00:13:12.045829975,E4_Acc,2024-06-24 11:34:44.986989975,-9.0,-63.0,13.0
1904-01-01 00:13:12.077079975,E4_Acc,2024-06-24 11:34:45.018239975,-10.0,-63.0,12.0
1904-01-01 00:13:12.108329975,E4_Acc,2024-06-24 11:34:45.049489975,-10.0,-63.0,12.0
1904-01-01 00:13:12.139579975,E4_Acc,2024-06-24 11:34:45.080739975,-9.0,-63.0,12.0
