Seconds,Stream,E4_Seconds,AccX,AccY,AccZ
1904-01-01 00:36:33.220992091,E4_Acc,2024-06-28 07:12:30.454070091,-49.0,-41.0,6.0
1904-01-01 00:36:33.252242091,E4_Acc,2024-06-28 07:12:30.485320091,-49.0,-42.0,7.0
1904-01-01 00:36:33.283502104,E4_Acc,2024-06-28 07:12:30.516580104,-49.0,-41.0,7.0
1904-01-01 00:36:33.314752105,E4_Acc,2024-06-28 07:12:30.547830105,-49.0,-41.0,7.0
1904-01-01 00:36:33.346002105,E4_Acc,2024-06-28 07:12:30.579080105,-49.0,-41.0,7.0
1904-01-01 00:36:33.377252105,E4_Acc,2024-06-28 07:12:30.610330105,-48.0,-41.0,7.0
1904-01-01 00:36:33.408502105,E4_Acc,2024-06-28 07:12:30.641580105,-49.0,-42.0,7.0
1904-01-01 00:36:33.439752105,E4_Acc,2024-06-28 07:12:30.672830105,-49.0,-42.0,7.0
1904-01-01 00:36:33.471002105,E4_Acc,2024-06-28 07:12:30.704080105,-48.0,-42.0,7.0
1904-01-01 00:36:33.502262118,E4_Acc,2024-06-28 07:12:30.735340118,-49.0,-42.0,6.0
1904-01-01 00:36:33.533512118,E4_Acc,2024-06-28 07:12:30.766590118,-49.0,-42.0,7.0
1904-01-01 00:36:33.564762118,E4_Acc,2024-06-28 07:12:30.797840118,-49.0,-42.0,7.0
1904-01-01 00:36:33.596012118,E4_Acc,2024-06-28 07:12:30.829090118,-49.0,-42.0,7.0
1904-01-01 00:36:33.627262118,E4_Acc,2024-06-28 07:12:30.860340118,-49.0,-42.0,7.0
1904-01-01 00:36:33.658512118,E4_Acc,2024-06-28 07:12:30.891590118,-49.0,-41.0,7.0
1904-01-01 00:36:33.689762118,E4_Acc,2024-06-28 07:12:30.922840118,-49.0,-42.0,7.0
1904-01-01 00:36:33.721021894,E4_Acc,2024-06-28 07:12:30.954099894,-49.0,-42.0,6.0
1904-01-01 00:36:33.752271894,E4_Acc,2024-06-28 07:12:30.985349894,-49.0,-43.0,6.0
1904-01-01 00:36:33.783521894,E4_Acc,2024-06-28 07:12:31.016599894,-49.0,-42.0,7.0
1904-01-01 00:36:33.814771894,E4_Acc,2024-06-28 07:12:31.047849894,-49.0,-42.0,7.0
1904-01-01 00:36:33.846021894,E4_Acc,2024-06-28 07:12:31.079099894,-49.0,-42.0,7.0
1904-01-01 00:36:33.877271894,E4_Acc,2024-06-28 07:12:31.110349894,-49.0,-42.0,7.0
1904-01-01 00:36:33.908521894,E4_Acc,2024-06-28 07:12:31.141599894,-49.0,-42.0,7.0
1904-01-01 00:36:33.939781907,E4_Acc,2024-06-28 07:12:31.172859907,-49.0,-42.0,6.0
1904-01-01 00:36:33.971031907,E4_Acc,2024-06-28 07:12:31.204109907,-50.0,-41.0,6.0
1904-01-01 00:36:34.002281907,E4_Acc,2024-06-28 07:12:31.235359907,-49.0,-41.0,7.0
1904-01-01 00:36:34.033531906,E4_Acc,2024-06-28 07:12:31.266609906,-50.0,-42.0,7.0
1904-01-01 00:36:34.064781907,E4_Acc,2024-06-28 07:12:31.297859907,-49.0,-42.0,7.0
1904-01-01 00:36:34.096031907,E4_Acc,2024-06-28 07:12:31.329109907,-49.0,-42.0,6.0
1904-01-01 00:36:34.127281907,E4_Acc,2024-06-28 07:12:31.360359907,-49.0,-41.0,6.0
1904-01-01 00:36:34.158541921,E4_Acc,2024-06-28 07:12:31.391619921,-50.0,-41.0,6.0
1904-01-01 00:36:34.189791921,E4_Acc,2024-06-28 07:12:31.422869921,-49.0,-42.0,7.0
1904-01-01 00:36:34.221041921,E4_Acc,2024-06-28 07:12:31.454119921,-48.0,-42.0,7.0
1904-01-01 00:36:34.252291921,E4_Acc,2024-06-28 07:12:31.485369921,-49.0,-41.0,7.0
1904-01-01 00:36:34.283541921,E4_Acc,2024-06-28 07:12:31.516619921,-49.0,-41.0,7.0
1904-01-01 00:36:34.314791921,E4_Acc,2024-06-28 07:12:31.547869921,-49.0,-41.0,7.0
1904-01-01 00:36:34.346041921,E4_Acc,2024-06-28 07:12:31.579119921,-49.0,-42.0,6.0
1904-01-01 00:36:34.377301934,E4_Acc,2024-06-28 07:12:31.610379934,-49.0,-42.0,6.0
1904-01-01 00:36:34.408551934,E4_Acc,2024-06-28 07:12:31.641629934,-49.0,-42.0,7.0
1904-01-01 00:36:34.439801934,E4_Acc,2024-06-28 07:12:31.672879934,-50.0,-42.0,7.0
1904-01-01 00:36:34.471051934,E4_Acc,2024-06-28 07:12:31.704129934,-50.0,-41.0,7.0
1904-01-01 00:36:34.502301934,E4_Acc,2024-06-28 07:12:31.735379934,-50.0,-41.0,7.0
1904-01-01 00:36:34.533551934,E4_Acc,2024-06-28 07:12:31.766629934,-50.0,-41.0,7.0
1904-01-01 00:36:34.564801934,E4_Acc,2024-06-28 07:12:31.797879934,-50.0,-41.0,7.0
1904-01-01 00:36:34.596061948,E4_Acc,2024-06-28 07:12:31.829139948,-49.0,-41.0,7.0
1904-01-01 00:36:34.627311948,E4_Acc,2024-06-28 07:12:31.860389948,-49.0,-41.0,7.0
1904-01-01 00:36:34.658561948,E4_Acc,2024-06-28 07:12:31.891639948,-49.0,-42.0,7.0
1904-01-01 00:36:34.689811948,E4_Acc,2024-06-28 07:12:31.922889948,-49.0,-42.0,7.0
1904-01-01 00:36:34.721061948,E4_Acc,2024-06-28 07:12:31.954139948,-49.0,-42.0,7.0
1904-01-01 00:36:34.752311948,E4_Acc,2024-06-28 07:12:31.985389948,-49.0,-42.0,7.0
1904-01-01 00:36:34.783571961,E4_Acc,2024-06-28 07:12:32.016649961,-49.0,-42.0,7.0
1904-01-01 00:36:34.814821961,E4_Acc,2024-06-28 07:12:32.047899961,-49.0,-41.0,7.0
1904-01-01 00:36:34.846071961,E4_Acc,2024-06-28 07:12:32.079149961,-49.0,-41.0,7.0
1904-01-01 00:36:34.877321961,E4_Acc,2024-06-28 07:12:32.110399961,-49.0,-41.0,7.0
1904-01-01 00:36:34.908571961,E4_Acc,2024-06-28 07:12:32.141649961,-49.0,-41.0,7.0
1904-01-01 00:36:34.939821961,E4_Acc,2024-06-28 07:12:32.172899961,-49.0,-41.0,7.0
1904-01-01 00:36:34.971071961,E4_Acc,2024-06-28 07:12:32.204149961,-49.0,-41.0,7.0
1904-01-01 00:36:35.002331975,E4_Acc,2024-06-28 07:12:32.235409975,-49.0,-42.0,7.0
1904-01-01 00:36:35.033581975,E4_Acc,2024-06-28 07:12:32.266659975,-49.0,-42.0,7.0
1904-01-01 00:36:35.064831975,E4_Acc,2024-06-28 07:12:32.297909975,-49.0,-42.0,7.0
1904-01-01 00:36:35.096081975,E4_Acc,2024-06-28 07:12:32.329159975,-49.0,-41.0,7.0
1904-01-01 00:36:35.127331975,E4_Acc,2024-06-28 07:12:32.360409975,-49.0,-41.0,7.0
1904-01-01 00:36:35.158581975,E4_Acc,2024-06-28 07:12:32.391659975,-49.0,-41.0,7.0
1904-01-01 00:36:35.189831975,E4_Acc,2024-06-28 07:12:32.422909975,-49.0,-41.0,7.0
1904-01-01 00:36:35.221091989,E4_Acc,2024-06-28 07:12:32.454169989,-50.0,-41.0,7.0
1904-01-01 00:36:35.252341989,E4_Acc,2024-06-28 07:12:32.485419989,-49.0,-41.0,7.0
1904-01-01 00:36:35.283591989,E4_Acc,2024-06-28 07:12:32.516669989,-49.0,-42.0,7.0
1904-01-01 00:36:35.314841989,E4_Acc,2024-06-28 07:12:32.547919989,-49.0,-41.0,8.0
1904-01-01 00:36:35.346091989,E4_Acc,2024-06-28 07:12:32.579169989,-49.0,-42.0,7.0
1904-01-01 00:36:35.377341989,E4_Acc,2024-06-28 07:12:32.610419989,-48.0,-42.0,7.0
1904-01-01 00:36:35.408591989,E4_Acc,2024-06-28 07:12:32.641669989,-49.0,-42.0,7.0
1904-01-01 00:36:35.439852002,E4_Acc,2024-06-28 07:12:32.672930002,-49.0,-41.0,7.0
1904-01-01 00:36:35.471102002,E4_Acc,2024-06-28 07:12:32.704180002,-49.0,-41.0,7.0
1904-01-01 00:36:35.502352002,E4_Acc,2024-06-28 07:12:32.735430002,-49.0,-41.0,7.0
1904-01-01 00:36:35.533602002,E4_Acc,2024-06-28 07:12:32.766680002,-49.0,-41.0,7.0
1904-01-01 00:36:35.564852002,E4_Acc,2024-06-28 07:12:32.797930002,-49.0,-41.0,7.0
1904-01-01 00:36:35.596102002,E4_Acc,2024-06-28 07:12:32.829180002,-49.0,-42.0,7.0
1904-01-01 00:36:35.627352002,E4_Acc,2024-06-28 07:12:32.860430002,-49.0,-41.0,7.0
1904-01-01 00:36:35.658612016,E4_Acc,2024-06-28 07:12:32.891690016,-49.0,-42.0,7.0
1904-01-01 00:36:35.689862016,E4_Acc,2024-06-28 07:12:32.922940016,-49.0,-42.0,7.0
1904-01-01 00:36:35.721112016,E4_Acc,2024-06-28 07:12:32.954190016,-49.0,-42.0,7.0
1904-01-01 00:36:35.752362016,E4_Acc,2024-06-28 07:12:32.985440016,-49.0,-42.0,7.0
1904-01-01 00:36:35.783612015,E4_Acc,2024-06-28 07:12:33.016690015,-49.0,-42.0,7.0
1904-01-01 00:36:35.814862016,E4_Acc,2024-06-28 07:12:33.047940016,-49.0,-42.0,7.0
1904-01-01 00:36:35.846112016,E4_Acc,2024-06-28 07:12:33.079190016,-49.0,-42.0,7.0
1904-01-01 00:36:35.877372029,E4_Acc,2024-06-28 07:12:33.110450029,-49.0,-42.0,7.0
1904-01-01 00:36:35.908622029,E4_Acc,2024-06-28 07:12:33.141700029,-49.0,-42.0,7.0
1904-01-01 00:36:35.939872029,E4_Acc,2024-06-28 07:12:33.172950029,-49.0,-42.0,7.0
1904-01-01 00:36:35.971122029,E4_Acc,2024-06-28 07:12:33.204200029,-49.0,-42.0,7.0
1904-01-01 00:36:36.002372029,E4_Acc,2024-06-28 07:12:33.235450029,-49.0,-42.0,7.0
1904-01-01 00:36:36.033622029,E4_Acc,2024-06-28 07:12:33.266700029,-49.0,-42.0,7.0
1904-01-01 00:36:36.064872029,E4_Acc,2024-06-28 07:12:33.297950029,-49.0,-41.0,7.0
1904-01-01 00:36:36.096132043,E4_Acc,2024-06-28 07:12:33.329210043,-49.0,-41.0,7.0
1904-01-01 00:36:36.127382043,E4_Acc,2024-06-28 07:12:33.360460043,-49.0,-41.0,7.0
1904-01-01 00:36:36.158632043,E4_Acc,2024-06-28 07:12:33.391710043,-49.0,-41.0,7.0
1904-01-01 00:36:36.189882043,E4_Acc,2024-06-28 07:12:33.422960043,-49.0,-41.0,7.0
1904-01-01 00:36:36.221132043,E4_Acc,2024-06-28 07:12:33.454210043,-49.0,-41.0,8.0
1904-01-01 00:36:36.252382043,E4_Acc,2024-06-28 07:12:33.485460043,-49.0,-41.0,7.0
1904-01-01 00:36:36.283632043,E4_Acc,2024-06-28 07:12:33.516710043,-49.0,-42.0,7.0
1904-01-01 00:36:36.314892057,E4_Acc,2024-06-28 07:12:33.547970057,-49.0,-42.0,7.0
1904-01-01 00:36:36.346142057,E4_Acc,2024-06-28 07:12:33.579220057,-49.0,-42.0,7.0
1904-01-01 00:36:36.377392057,E4_Acc,2024-06-28 07:12:33.610470057,-49.0,-42.0,7.0
1904-01-01 00:36:36.408642057,E4_Acc,2024-06-28 07:12:33.641720057,-49.0,-41.0,7.0
1904-01-01 00:36:36.439892057,E4_Acc,2024-06-28 07:12:33.672970057,-49.0,-41.0,7.0
1904-01-01 00:36:36.471142057,E4_Acc,2024-06-28 07:12:33.704220057,-49.0,-42.0,7.0
1904-01-01 00:36:36.502392057,E4_Acc,2024-06-28 07:12:33.735470057,-49.0,-41.0,7.0
1904-01-01 00:36:36.533652070,E4_Acc,2024-06-28 07:12:33.766730070,-49.0,-42.0,7.0
1904-01-01 00:36:36.564902070,E4_Acc,2024-06-28 07:12:33.797980070,-49.0,-42.0,8.0
1904-01-01 00:36:36.596152070,E4_Acc,2024-06-28 07:12:33.829230070,-49.0,-42.0,7.0
1904-01-01 00:36:36.627402070,E4_Acc,2024-06-28 07:12:33.860480070,-49.0,-42.0,8.0
1904-01-01 00:36:36.658652070,E4_Acc,2024-06-28 07:12:33.891730070,-49.0,-42.0,7.0
1904-01-01 00:36:36.689902070,E4_Acc,2024-06-28 07:12:33.922980070,-49.0,-42.0,7.0
1904-01-01 00:36:36.721152070,E4_Acc,2024-06-28 07:12:33.954230070,-49.0,-42.0,7.0
1904-01-01 00:36:36.752412084,E4_Acc,2024-06-28 07:12:33.985490084,-49.0,-42.0,7.0
1904-01-01 00:36:36.783662083,E4_Acc,2024-06-28 07:12:34.016740083,-49.0,-41.0,7.0
1904-01-01 00:36:36.814912084,E4_Acc,2024-06-28 07:12:34.047990084,-49.0,-42.0,7.0
1904-01-01 00:36:36.846162084,E4_Acc,2024-06-28 07:12:34.079240084,-49.0,-42.0,7.0
1904-01-01 00:36:36.877412084,E4_Acc,2024-06-28 07:12:34.110490084,-49.0,-41.0,7.0
1904-01-01 00:36:36.908662084,E4_Acc,2024-06-28 07:12:34.141740084,-49.0,-42.0,8.0
1904-01-01 00:36:36.939912084,E4_Acc,2024-06-28 07:12:34.172990084,-49.0,-41.0,7.0
1904-01-01 00:36:36.971172097,E4_Acc,2024-06-28 07:12:34.204250097,-49.0,-41.0,7.0
1904-01-01 00:36:37.002422097,E4_Acc,2024-06-28 07:12:34.235500097,-49.0,-42.0,7.0
1904-01-01 00:36:37.033672097,E4_Acc,2024-06-28 07:12:34.266750097,-49.0,-42.0,8.0
1904-01-01 00:36:37.064922097,E4_Acc,2024-06-28 07:12:34.298000097,-50.0,-42.0,7.0
1904-01-01 00:36:37.096172097,E4_Acc,2024-06-28 07:12:34.329250097,-49.0,-42.0,7.0
1904-01-01 00:36:37.127422097,E4_Acc,2024-06-28 07:12:34.360500097,-49.0,-42.0,8.0
1904-01-01 00:36:37.158682111,E4_Acc,2024-06-28 07:12:34.391760111,-49.0,-42.0,8.0
1904-01-01 00:36:37.189932111,E4_Acc,2024-06-28 07:12:34.423010111,-49.0,-42.0,7.0
1904-01-01 00:36:37.221182111,E4_Acc,2024-06-28 07:12:34.454260111,-49.0,-42.0,7.0
1904-01-01 00:36:37.252432111,E4_Acc,2024-06-28 07:12:34.485510111,-49.0,-42.0,7.0
1904-01-01 00:36:37.283682110,E4_Acc,2024-06-28 07:12:34.516760110,-49.0,-42.0,8.0
1904-01-01 00:36:37.314932111,E4_Acc,2024-06-28 07:12:34.548010111,-49.0,-42.0,7.0
1904-01-01 00:36:37.346182111,E4_Acc,2024-06-28 07:12:34.579260111,-49.0,-42.0,7.0
1904-01-01 00:36:37.377441886,E4_Acc,2024-06-28 07:12:34.610519886,-49.0,-42.0,7.0
1904-01-01 00:36:37.408691886,E4_Acc,2024-06-28 07:12:34.641769886,-49.0,-42.0,7.0
1904-01-01 00:36:37.439941886,E4_Acc,2024-06-28 07:12:34.673019886,-49.0,-42.0,7.0
1904-01-01 00:36:37.471191886,E4_Acc,2024-06-28 07:12:34.704269886,-49.0,-42.0,8.0
1904-01-01 00:36:37.502441886,E4_Acc,2024-06-28 07:12:34.735519886,-49.0,-41.0,7.0
1904-01-01 00:36:37.533691886,E4_Acc,2024-06-28 07:12:34.766769886,-49.0,-41.0,7.0
1904-01-01 00:36:37.564941886,E4_Acc,2024-06-28 07:12:34.798019886,-49.0,-41.0,8.0
1904-01-01 00:36:37.596201900,E4_Acc,2024-06-28 07:12:34.829279900,-49.0,-42.0,7.0
1904-01-01 00:36:37.627451900,E4_Acc,2024-06-28 07:12:34.860529900,-49.0,-42.0,7.0
1904-01-01 00:36:37.658701900,E4_Acc,2024-06-28 07:12:34.891779900,-49.0,-41.0,7.0
1904-01-01 00:36:37.689951900,E4_Acc,2024-06-28 07:12:34.923029900,-49.0,-41.0,7.0
1904-01-01 00:36:37.721201900,E4_Acc,2024-06-28 07:12:34.954279900,-49.0,-41.0,8.0
1904-01-01 00:36:37.752451900,E4_Acc,2024-06-28 07:12:34.985529900,-49.0,-41.0,8.0
1904-01-01 00:36:37.783701900,E4_Acc,2024-06-28 07:12:35.016779900,-49.0,-42.0,8.0
1904-01-01 00:36:37.814961913,E4_Acc,2024-06-28 07:12:35.048039913,-49.0,-42.0,8.0
1904-01-01 00:36:37.846211913,E4_Acc,2024-06-28 07:12:35.079289913,-49.0,-42.0,8.0
1904-01-01 00:36:37.877461913,E4_Acc,2024-06-28 07:12:35.110539913,-49.0,-42.0,7.0
1904-01-01 00:36:37.908711913,E4_Acc,2024-06-28 07:12:35.141789913,-49.0,-42.0,8.0
1904-01-01 00:36:37.939961913,E4_Acc,2024-06-28 07:12:35.173039913,-49.0,-42.0,7.0
1904-01-01 00:36:37.971211913,E4_Acc,2024-06-28 07:12:35.204289913,-49.0,-42.0,7.0
1904-01-01 00:36:38.002461913,E4_Acc,2024-06-28 07:12:35.235539913,-49.0,-42.0,8.0
1904-01-01 00:36:38.033721927,E4_Acc,2024-06-28 07:12:35.266799927,-49.0,-42.0,8.0
1904-01-01 00:36:38.064971927,E4_Acc,2024-06-28 07:12:35.298049927,-49.0,-42.0,8.0
1904-01-01 00:36:38.096221927,E4_Acc,2024-06-28 07:12:35.329299927,-49.0,-42.0,8.0
1904-01-01 00:36:38.127471927,E4_Acc,2024-06-28 07:12:35.360549927,-49.0,-42.0,8.0
1904-01-01 00:36:38.158721927,E4_Acc,2024-06-28 07:12:35.391799927,-49.0,-42.0,8.0
1904-01-01 00:36:38.189971927,E4_Acc,2024-06-28 07:12:35.423049927,-49.0,-42.0,7.0
1904-01-01 00:36:38.221221927,E4_Acc,2024-06-28 07:12:35.454299927,-49.0,-42.0,8.0
1904-01-01 00:36:38.252481940,E4_Acc,2024-06-28 07:12:35.485559940,-49.0,-42.0,8.0
1904-01-01 00:36:38.283731940,E4_Acc,2024-06-28 07:12:35.516809940,-49.0,-41.0,8.0
1904-01-01 00:36:38.314981940,E4_Acc,2024-06-28 07:12:35.548059940,-49.0,-41.0,8.0
1904-01-01 00:36:38.346231940,E4_Acc,2024-06-28 07:12:35.579309940,-49.0,-42.0,8.0
1904-01-01 00:36:38.377481940,E4_Acc,2024-06-28 07:12:35.610559940,-49.0,-42.0,8.0
1904-01-01 00:36:38.408731940,E4_Acc,2024-06-28 07:12:35.641809940,-49.0,-42.0,8.0
1904-01-01 00:36:38.439981940,E4_Acc,2024-06-28 07:12:35.673059940,-49.0,-41.0,7.0
1904-01-01 00:36:38.471241954,E4_Acc,2024-06-28 07:12:35.704319954,-49.0,-42.0,8.0
1904-01-01 00:36:38.502491954,E4_Acc,2024-06-28 07:12:35.735569954,-49.0,-42.0,8.0
1904-01-01 00:36:38.533741954,E4_Acc,2024-06-28 07:12:35.766819954,-49.0,-41.0,8.0
1904-01-01 00:36:38.564991954,E4_Acc,2024-06-28 07:12:35.798069954,-49.0,-41.0,8.0
1904-01-01 00:36:38.596241954,E4_Acc,2024-06-28 07:12:35.829319954,-49.0,-41.0,8.0
1904-01-01 00:36:38.627491954,E4_Acc,2024-06-28 07:12:35.860569954,-49.0,-41.0,8.0
1904-01-01 00:36:38.658741954,E4_Acc,2024-06-28 07:12:35.891819954,-49.0,-42.0,8.0
1904-01-01 00:36:38.690001967,E4_Acc,2024-06-28 07:12:35.923079967,-49.0,-42.0,8.0
1904-01-01 00:36:38.721251967,E4_Acc,2024-06-28 07:12:35.954329967,-49.0,-42.0,8.0
1904-01-01 00:36:38.752501967,E4_Acc,2024-06-28 07:12:35.985579967,-49.0,-42.0,8.0
1904-01-01 00:36:38.783751967,E4_Acc,2024-06-28 07:12:36.016829967,-49.0,-42.0,8.0
1904-01-01 00:36:38.815001967,E4_Acc,2024-06-28 07:12:36.048079967,-49.0,-42.0,8.0
1904-01-01 00:36:38.846251967,E4_Acc,2024-06-28 07:12:36.079329967,-49.0,-42.0,8.0
1904-01-01 00:36:38.877501967,E4_Acc,2024-06-28 07:12:36.110579967,-49.0,-42.0,8.0
1904-01-01 00:36:38.908761981,E4_Acc,2024-06-28 07:12:36.141839981,-49.0,-42.0,8.0
1904-01-01 00:36:38.940011981,E4_Acc,2024-06-28 07:12:36.173089981,-49.0,-42.0,8.0
1904-01-01 00:36:38.971261981,E4_Acc,2024-06-28 07:12:36.204339981,-49.0,-42.0,8.0
1904-01-01 00:36:39.002511981,E4_Acc,2024-06-28 07:12:36.235589981,-49.0,-42.0,8.0
1904-01-01 00:36:39.033761981,E4_Acc,2024-06-28 07:12:36.266839981,-49.0,-42.0,8.0
1904-01-01 00:36:39.065011981,E4_Acc,2024-06-28 07:12:36.298089981,-49.0,-42.0,8.0
1904-01-01 00:36:39.096261981,E4_Acc,2024-06-28 07:12:36.329339981,-48.0,-42.0,8.0
1904-01-01 00:36:39.127521995,E4_Acc,2024-06-28 07:12:36.360599995,-49.0,-42.0,7.0
1904-01-01 00:36:39.158771995,E4_Acc,2024-06-28 07:12:36.391849995,-49.0,-42.0,8.0
1904-01-01 00:36:39.190021995,E4_Acc,2024-06-28 07:12:36.423099995,-49.0,-42.0,8.0
1904-01-01 00:36:39.221271995,E4_Acc,2024-06-28 07:12:36.454349995,-49.0,-41.0,8.0
1904-01-01 00:36:39.252521995,E4_Acc,2024-06-28 07:12:36.485599995,-49.0,-42.0,7.0
1904-01-01 00:36:39.283771994,E4_Acc,2024-06-28 07:12:36.516849994,-49.0,-42.0,8.0
1904-01-01 00:36:39.315021995,E4_Acc,2024-06-28 07:12:36.548099995,-49.0,-42.0,8.0
1904-01-01 00:36:39.346282008,E4_Acc,2024-06-28 07:12:36.579360008,-49.0,-42.0,8.0
1904-01-01 00:36:39.377532008,E4_Acc,2024-06-28 07:12:36.610610008,-49.0,-41.0,8.0
1904-01-01 00:36:39.408782008,E4_Acc,2024-06-28 07:12:36.641860008,-49.0,-42.0,8.0
1904-01-01 00:36:39.440032008,E4_Acc,2024-06-28 07:12:36.673110008,-49.0,-42.0,8.0
1904-01-01 00:36:39.471282008,E4_Acc,2024-06-28 07:12:36.704360008,-49.0,-42.0,8.0
1904-01-01 00:36:39.502532008,E4_Acc,2024-06-28 07:12:36.735610008,-49.0,-42.0,8.0
1904-01-01 00:36:39.533792022,E4_Acc,2024-06-28 07:12:36.766870022,-49.0,-41.0,7.0
1904-01-01 00:36:39.565042022,E4_Acc,2024-06-28 07:12:36.798120022,-49.0,-42.0,8.0
1904-01-01 00:36:39.596292022,E4_Acc,2024-06-28 07:12:36.829370022,-49.0,-42.0,8.0
1904-01-01 00:36:39.627542022,E4_Acc,2024-06-28 07:12:36.860620022,-49.0,-42.0,8.0
1904-01-01 00:36:39.658792022,E4_Acc,2024-06-28 07:12:36.891870022,-49.0,-42.0,8.0
1904-01-01 00:36:39.690042022,E4_Acc,2024-06-28 07:12:36.923120022,-49.0,-42.0,8.0
1904-01-01 00:36:39.721292022,E4_Acc,2024-06-28 07:12:36.954370022,-49.0,-42.0,7.0
1904-01-01 00:36:39.752552035,E4_Acc,2024-06-28 07:12:36.985630035,-49.0,-42.0,7.0
1904-01-01 00:36:39.783802035,E4_Acc,2024-06-28 07:12:37.016880035,-49.0,-42.0,8.0
1904-01-01 00:36:39.815052035,E4_Acc,2024-06-28 07:12:37.048130035,-49.0,-42.0,7.0
1904-01-01 00:36:39.846302035,E4_Acc,2024-06-28 07:12:37.079380035,-49.0,-42.0,7.0
1904-01-01 00:36:39.877552035,E4_Acc,2024-06-28 07:12:37.110630035,-49.0,-42.0,7.0
1904-01-01 00:36:39.908802035,E4_Acc,2024-06-28 07:12:37.141880035,-49.0,-42.0,7.0
1904-01-01 00:36:39.940052035,E4_Acc,2024-06-28 07:12:37.173130035,-49.0,-42.0,7.0
1904-01-01 00:36:39.971312049,E4_Acc,2024-06-28 07:12:37.204390049,-49.0,-42.0,7.0
1904-01-01 00:36:40.002562049,E4_Acc,2024-06-28 07:12:37.235640049,-49.0,-42.0,7.0
1904-01-01 00:36:40.033812049,E4_Acc,2024-06-28 07:12:37.266890049,-49.0,-42.0,7.0
1904-01-01 00:36:40.065062049,E4_Acc,2024-06-28 07:12:37.298140049,-49.0,-42.0,7.0
1904-01-01 00:36:40.096312049,E4_Acc,2024-06-28 07:12:37.329390049,-49.0,-42.0,7.0
1904-01-01 00:36:40.127562049,E4_Acc,2024-06-28 07:12:37.360640049,-49.0,-42.0,8.0
1904-01-01 00:36:40.158812049,E4_Acc,2024-06-28 07:12:37.391890049,-49.0,-42.0,8.0
1904-01-01 00:36:40.190072063,E4_Acc,2024-06-28 07:12:37.423150063,-49.0,-42.0,8.0
1904-01-01 00:36:40.221322063,E4_Acc,2024-06-28 07:12:37.454400063,-49.0,-42.0,7.0
1904-01-01 00:36:40.252572063,E4_Acc,2024-06-28 07:12:37.485650063,-49.0,-42.0,8.0
1904-01-01 00:36:40.283822063,E4_Acc,2024-06-28 07:12:37.516900063,-49.0,-42.0,8.0
1904-01-01 00:36:40.315072063,E4_Acc,2024-06-28 07:12:37.548150063,-49.0,-42.0,8.0
1904-01-01 00:36:40.346322063,E4_Acc,2024-06-28 07:12:37.579400063,-49.0,-41.0,7.0
1904-01-01 00:36:40.377572063,E4_Acc,2024-06-28 07:12:37.610650063,-49.0,-42.0,7.0
1904-01-01 00:36:40.408832076,E4_Acc,2024-06-28 07:12:37.641910076,-49.0,-42.0,7.0
1904-01-01 00:36:40.440082076,E4_Acc,2024-06-28 07:12:37.673160076,-49.0,-42.0,7.0
1904-01-01 00:36:40.471332076,E4_Acc,2024-06-28 07:12:37.704410076,-49.0,-42.0,7.0
1904-01-01 00:36:40.502582076,E4_Acc,2024-06-28 07:12:37.735660076,-49.0,-42.0,7.0
1904-01-01 00:36:40.533832076,E4_Acc,2024-06-28 07:12:37.766910076,-49.0,-42.0,8.0
1904-01-01 00:36:40.565082076,E4_Acc,2024-06-28 07:12:37.798160076,-49.0,-42.0,8.0
1904-01-01 00:36:40.596332076,E4_Acc,2024-06-28 07:12:37.829410076,-49.0,-42.0,8.0
1904-01-01 00:36:40.627592090,E4_Acc,2024-06-28 07:12:37.860670090,-49.0,-42.0,8.0
1904-01-01 00:36:40.658842090,E4_Acc,2024-06-28 07:12:37.891920090,-49.0,-42.0,8.0
1904-01-01 00:36:40.690092090,E4_Acc,2024-06-28 07:12:37.923170090,-49.0,-42.0,8.0
1904-01-01 00:36:40.721342090,E4_Acc,2024-06-28 07:12:37.954420090,-49.0,-42.0,7.0
1904-01-01 00:36:40.752592090,E4_Acc,2024-06-28 07:12:37.985670090,-49.0,-42.0,7.0
1904-01-01 00:36:40.783842090,E4_Acc,2024-06-28 07:12:38.016920090,-49.0,-42.0,7.0
1904-01-01 00:36:40.815092090,E4_Acc,2024-06-28 07:12:38.048170090,-49.0,-42.0,8.0
1904-01-01 00:36:40.846352103,E4_Acc,2024-06-28 07:12:38.079430103,-49.0,-42.0,8.0
1904-01-01 00:36:40.877602103,E4_Acc,2024-06-28 07:12:38.110680103,-49.0,-41.0,8.0
1904-01-01 00:36:40.908852103,E4_Acc,2024-06-28 07:12:38.141930103,-49.0,-41.0,8.0
1904-01-01 00:36:40.940102103,E4_Acc,2024-06-28 07:12:38.173180103,-49.0,-42.0,8.0
1904-01-01 00:36:40.971352103,E4_Acc,2024-06-28 07:12:38.204430103,-49.0,-42.0,7.0
1904-01-01 00:36:41.002602103,E4_Acc,2024-06-28 07:12:38.235680103,-49.0,-42.0,7.0
1904-01-01 00:36:41.033852102,E4_Acc,2024-06-28 07:12:38.266930102,-49.0,-41.0,8.0
1904-01-01 00:36:41.065112117,E4_Acc,2024-06-28 07:12:38.298190117,-49.0,-41.0,8.0
1904-01-01 00:36:41.096362117,E4_Acc,2024-06-28 07:12:38.329440117,-49.0,-41.0,8.0
1904-01-01 00:36:41.127612117,E4_Acc,2024-06-28 07:12:38.360690117,-49.0,-42.0,8.0
1904-01-01 00:36:41.158862117,E4_Acc,2024-06-28 07:12:38.391940117,-49.0,-42.0,8.0
1904-01-01 00:36:41.190112117,E4_Acc,2024-06-28 07:12:38.423190117,-50.0,-42.0,8.0
1904-01-01 00:36:41.221362117,E4_Acc,2024-06-28 07:12:38.454440117,-49.0,-41.0,8.0
1904-01-01 00:36:41.252612117,E4_Acc,2024-06-28 07:12:38.485690117,-49.0,-41.0,8.0
1904-01-01 00:36:41.283871891,E4_Acc,2024-06-28 07:12:38.516949891,-49.0,-41.0,8.0
1904-01-01 00:36:41.315121892,E4_Acc,2024-06-28 07:12:38.548199892,-49.0,-42.0,8.0
1904-01-01 00:36:41.346371892,E4_Acc,2024-06-28 07:12:38.579449892,-49.0,-42.0,8.0
1904-01-01 00:36:41.377621892,E4_Acc,2024-06-28 07:12:38.610699892,-49.0,-42.0,8.0
1904-01-01 00:36:41.408871892,E4_Acc,2024-06-28 07:12:38.641949892,-49.0,-41.0,8.0
1904-01-01 00:36:41.440121892,E4_Acc,2024-06-28 07:12:38.673199892,-49.0,-42.0,8.0
1904-01-01 00:36:41.471371892,E4_Acc,2024-06-28 07:12:38.704449892,-48.0,-42.0,8.0
1904-01-01 00:36:41.502631906,E4_Acc,2024-06-28 07:12:38.735709906,-49.0,-42.0,8.0
1904-01-01 00:36:41.533881906,E4_Acc,2024-06-28 07:12:38.766959906,-48.0,-42.0,8.0
1904-01-01 00:36:41.565131906,E4_Acc,2024-06-28 07:12:38.798209906,-48.0,-41.0,8.0
1904-01-01 00:36:41.596381906,E4_Acc,2024-06-28 07:12:38.829459906,-49.0,-42.0,8.0
1904-01-01 00:36:41.627631906,E4_Acc,2024-06-28 07:12:38.860709906,-49.0,-42.0,8.0
1904-01-01 00:36:41.658881906,E4_Acc,2024-06-28 07:12:38.891959906,-49.0,-42.0,8.0
1904-01-01 00:36:41.690131906,E4_Acc,2024-06-28 07:12:38.923209906,-49.0,-41.0,8.0
1904-01-01 00:36:41.721391919,E4_Acc,2024-06-28 07:12:38.954469919,-49.0,-41.0,8.0
1904-01-01 00:36:41.752641919,E4_Acc,2024-06-28 07:12:38.985719919,-49.0,-41.0,8.0
1904-01-01 00:36:41.783891919,E4_Acc,2024-06-28 07:12:39.016969919,-49.0,-42.0,8.0
1904-01-01 00:36:41.815141919,E4_Acc,2024-06-28 07:12:39.048219919,-49.0,-42.0,8.0
1904-01-01 00:36:41.846391919,E4_Acc,2024-06-28 07:12:39.079469919,-49.0,-41.0,8.0
1904-01-01 00:36:41.877641919,E4_Acc,2024-06-28 07:12:39.110719919,-49.0,-41.0,8.0
1904-01-01 00:36:41.908891919,E4_Acc,2024-06-28 07:12:39.141969919,-49.0,-42.0,8.0
1904-01-01 00:36:41.940151933,E4_Acc,2024-06-28 07:12:39.173229933,-49.0,-42.0,8.0
1904-01-01 00:36:41.971401933,E4_Acc,2024-06-28 07:12:39.204479933,-49.0,-42.0,8.0
1904-01-01 00:36:42.002651933,E4_Acc,2024-06-28 07:12:39.235729933,-49.0,-42.0,8.0
1904-01-01 00:36:42.033901933,E4_Acc,2024-06-28 07:12:39.266979933,-49.0,-42.0,8.0
1904-01-01 00:36:42.065151933,E4_Acc,2024-06-28 07:12:39.298229933,-49.0,-41.0,8.0
1904-01-01 00:36:42.096401933,E4_Acc,2024-06-28 07:12:39.329479933,-49.0,-42.0,8.0
1904-01-01 00:36:42.127661946,E4_Acc,2024-06-28 07:12:39.360739946,-49.0,-42.0,8.0
1904-01-01 00:36:42.158911946,E4_Acc,2024-06-28 07:12:39.391989946,-49.0,-42.0,8.0
1904-01-01 00:36:42.190161946,E4_Acc,2024-06-28 07:12:39.423239946,-49.0,-42.0,8.0
1904-01-01 00:36:42.221411946,E4_Acc,2024-06-28 07:12:39.454489946,-49.0,-42.0,8.0
1904-01-01 00:36:42.252661946,E4_Acc,2024-06-28 07:12:39.485739946,-49.0,-42.0,8.0
1904-01-01 00:36:42.283911946,E4_Acc,2024-06-28 07:12:39.516989946,-49.0,-42.0,8.0
1904-01-01 00:36:42.315161946,E4_Acc,2024-06-28 07:12:39.548239946,-49.0,-42.0,7.0
1904-01-01 00:36:42.346421960,E4_Acc,2024-06-28 07:12:39.579499960,-48.0,-41.0,7.0
1904-01-01 00:36:42.377671960,E4_Acc,2024-06-28 07:12:39.610749960,-49.0,-42.0,7.0
1904-01-01 00:36:42.408921960,E4_Acc,2024-06-28 07:12:39.641999960,-49.0,-42.0,7.0
1904-01-01 00:36:42.440171960,E4_Acc,2024-06-28 07:12:39.673249960,-49.0,-42.0,7.0
1904-01-01 00:36:42.471421960,E4_Acc,2024-06-28 07:12:39.704499960,-49.0,-42.0,8.0
1904-01-01 00:36:42.502671960,E4_Acc,2024-06-28 07:12:39.735749960,-49.0,-42.0,8.0
1904-01-01 00:36:42.533921960,E4_Acc,2024-06-28 07:12:39.766999960,-49.0,-42.0,7.0
1904-01-01 00:36:42.565181974,E4_Acc,2024-06-28 07:12:39.798259974,-49.0,-42.0,7.0
1904-01-01 00:36:42.596431974,E4_Acc,2024-06-28 07:12:39.829509974,-49.0,-42.0,8.0
1904-01-01 00:36:42.627681974,E4_Acc,2024-06-28 07:12:39.860759974,-49.0,-41.0,7.0
1904-01-01 00:36:42.658931974,E4_Acc,2024-06-28 07:12:39.892009974,-49.0,-41.0,7.0
1904-01-01 00:36:42.690181974,E4_Acc,2024-06-28 07:12:39.923259974,-49.0,-41.0,7.0
1904-01-01 00:36:42.721431974,E4_Acc,2024-06-28 07:12:39.954509974,-49.0,-42.0,8.0
1904-01-01 00:36:42.752681974,E4_Acc,2024-06-28 07:12:39.985759974,-49.0,-42.0,8.0
1904-01-01 00:36:42.783941987,E4_Acc,2024-06-28 07:12:40.017019987,-49.0,-42.0,8.0
1904-01-01 00:36:42.815191987,E4_Acc,2024-06-28 07:12:40.048269987,-49.0,-42.0,7.0
1904-01-01 00:36:42.846441987,E4_Acc,2024-06-28 07:12:40.079519987,-49.0,-42.0,7.0
1904-01-01 00:36:42.877691987,E4_Acc,2024-06-28 07:12:40.110769987,-49.0,-42.0,7.0
1904-01-01 00:36:42.908941987,E4_Acc,2024-06-28 07:12:40.142019987,-49.0,-42.0,7.0
1904-01-01 00:36:42.940191987,E4_Acc,2024-06-28 07:12:40.173269987,-49.0,-42.0,7.0
1904-01-01 00:36:42.971441987,E4_Acc,2024-06-28 07:12:40.204519987,-49.0,-42.0,8.0
1904-01-01 00:36:43.002702001,E4_Acc,2024-06-28 07:12:40.235780001,-49.0,-42.0,8.0
1904-01-01 00:36:43.033952001,E4_Acc,2024-06-28 07:12:40.267030001,-50.0,-42.0,8.0
1904-01-01 00:36:43.065202001,E4_Acc,2024-06-28 07:12:40.298280001,-49.0,-42.0,8.0
1904-01-01 00:36:43.096452001,E4_Acc,2024-06-28 07:12:40.329530001,-49.0,-42.0,7.0
1904-01-01 00:36:43.127702001,E4_Acc,2024-06-28 07:12:40.360780001,-49.0,-42.0,8.0
1904-01-01 00:36:43.158952001,E4_Acc,2024-06-28 07:12:40.392030001,-49.0,-41.0,7.0
1904-01-01 00:36:43.190202001,E4_Acc,2024-06-28 07:12:40.423280001,-49.0,-41.0,8.0
1904-01-01 00:36:43.221462014,E4_Acc,2024-06-28 07:12:40.454540014,-50.0,-41.0,8.0
1904-01-01 00:36:43.252712014,E4_Acc,2024-06-28 07:12:40.485790014,-49.0,-41.0,8.0
1904-01-01 00:36:43.283962014,E4_Acc,2024-06-28 07:12:40.517040014,-49.0,-41.0,8.0
1904-01-01 00:36:43.315212014,E4_Acc,2024-06-28 07:12:40.548290014,-49.0,-42.0,8.0
1904-01-01 00:36:43.346462014,E4_Acc,2024-06-28 07:12:40.579540014,-49.0,-42.0,8.0
1904-01-01 00:36:43.377712014,E4_Acc,2024-06-28 07:12:40.610790014,-49.0,-42.0,8.0
1904-01-01 00:36:43.408962014,E4_Acc,2024-06-28 07:12:40.642040014,-49.0,-41.0,7.0
1904-01-01 00:36:43.440222028,E4_Acc,2024-06-28 07:12:40.673300028,-49.0,-42.0,8.0
1904-01-01 00:36:43.471472028,E4_Acc,2024-06-28 07:12:40.704550028,-49.0,-41.0,8.0
1904-01-01 00:36:43.502722028,E4_Acc,2024-06-28 07:12:40.735800028,-49.0,-41.0,7.0
1904-01-01 00:36:43.533972028,E4_Acc,2024-06-28 07:12:40.767050028,-49.0,-41.0,8.0
1904-01-01 00:36:43.565222028,E4_Acc,2024-06-28 07:12:40.798300028,-49.0,-41.0,7.0
1904-01-01 00:36:43.596472028,E4_Acc,2024-06-28 07:12:40.829550028,-49.0,-41.0,8.0
1904-01-01 00:36:43.627722028,E4_Acc,2024-06-28 07:12:40.860800028,-49.0,-41.0,8.0
1904-01-01 00:36:43.658982041,E4_Acc,2024-06-28 07:12:40.892060041,-49.0,-41.0,8.0
1904-01-01 00:36:43.690232041,E4_Acc,2024-06-28 07:12:40.923310041,-49.0,-42.0,8.0
1904-01-01 00:36:43.721482041,E4_Acc,2024-06-28 07:12:40.954560041,-50.0,-42.0,8.0
1904-01-01 00:36:43.752732041,E4_Acc,2024-06-28 07:12:40.985810041,-49.0,-41.0,8.0
1904-01-01 00:36:43.783982041,E4_Acc,2024-06-28 07:12:41.017060041,-49.0,-41.0,7.0
1904-01-01 00:36:43.815232041,E4_Acc,2024-06-28 07:12:41.048310041,-49.0,-41.0,7.0
1904-01-01 00:36:43.846482041,E4_Acc,2024-06-28 07:12:41.079560041,-49.0,-42.0,7.0
1904-01-01 00:36:43.877742055,E4_Acc,2024-06-28 07:12:41.110820055,-49.0,-41.0,8.0
1904-01-01 00:36:43.908992055,E4_Acc,2024-06-28 07:12:41.142070055,-49.0,-41.0,7.0
1904-01-01 00:36:43.940242055,E4_Acc,2024-06-28 07:12:41.173320055,-49.0,-41.0,7.0
1904-01-01 00:36:43.971492055,E4_Acc,2024-06-28 07:12:41.204570055,-49.0,-42.0,7.0
1904-01-01 00:36:44.002742055,E4_Acc,2024-06-28 07:12:41.235820055,-49.0,-42.0,7.0
1904-01-01 00:36:44.033992054,E4_Acc,2024-06-28 07:12:41.267070054,-49.0,-42.0,7.0
1904-01-01 00:36:44.065242055,E4_Acc,2024-06-28 07:12:41.298320055,-49.0,-41.0,7.0
1904-01-01 00:36:44.096502069,E4_Acc,2024-06-28 07:12:41.329580069,-49.0,-42.0,7.0
1904-01-01 00:36:44.127752069,E4_Acc,2024-06-28 07:12:41.360830069,-49.0,-42.0,7.0
1904-01-01 00:36:44.159002069,E4_Acc,2024-06-28 07:12:41.392080069,-49.0,-42.0,7.0
1904-01-01 00:36:44.190252069,E4_Acc,2024-06-28 07:12:41.423330069,-49.0,-41.0,7.0
1904-01-01 00:36:44.221502069,E4_Acc,2024-06-28 07:12:41.454580069,-49.0,-42.0,7.0
1904-01-01 00:36:44.252752069,E4_Acc,2024-06-28 07:12:41.485830069,-49.0,-42.0,7.0
1904-01-01 00:36:44.284002069,E4_Acc,2024-06-28 07:12:41.517080069,-49.0,-42.0,7.0
1904-01-01 00:36:44.315262082,E4_Acc,2024-06-28 07:12:41.548340082,-49.0,-42.0,7.0
1904-01-01 00:36:44.346512082,E4_Acc,2024-06-28 07:12:41.579590082,-49.0,-42.0,7.0
1904-01-01 00:36:44.377762082,E4_Acc,2024-06-28 07:12:41.610840082,-49.0,-42.0,7.0
1904-01-01 00:36:44.409012082,E4_Acc,2024-06-28 07:12:41.642090082,-49.0,-42.0,7.0
1904-01-01 00:36:44.440262082,E4_Acc,2024-06-28 07:12:41.673340082,-49.0,-41.0,7.0
1904-01-01 00:36:44.471512082,E4_Acc,2024-06-28 07:12:41.704590082,-50.0,-41.0,7.0
1904-01-01 00:36:44.502772096,E4_Acc,2024-06-28 07:12:41.735850096,-49.0,-42.0,7.0
1904-01-01 00:36:44.534022096,E4_Acc,2024-06-28 07:12:41.767100096,-49.0,-42.0,7.0
1904-01-01 00:36:44.565272096,E4_Acc,2024-06-28 07:12:41.798350096,-49.0,-41.0,7.0
1904-01-01 00:36:44.596522096,E4_Acc,2024-06-28 07:12:41.829600096,-49.0,-42.0,7.0
1904-01-01 00:36:44.627772096,E4_Acc,2024-06-28 07:12:41.860850096,-49.0,-42.0,7.0
1904-01-01 00:36:44.659022096,E4_Acc,2024-06-28 07:12:41.892100096,-49.0,-42.0,7.0
1904-01-01 00:36:44.690272096,E4_Acc,2024-06-28 07:12:41.923350096,-49.0,-41.0,7.0
1904-01-01 00:36:44.721532109,E4_Acc,2024-06-28 07:12:41.954610109,-49.0,-41.0,7.0
1904-01-01 00:36:44.752782109,E4_Acc,2024-06-28 07:12:41.985860109,-49.0,-42.0,7.0
1904-01-01 00:36:44.784032109,E4_Acc,2024-06-28 07:12:42.017110109,-49.0,-42.0,7.0
1904-01-01 00:36:44.815282109,E4_Acc,2024-06-28 07:12:42.048360109,-49.0,-42.0,7.0
1904-01-01 00:36:44.846532109,E4_Acc,2024-06-28 07:12:42.079610109,-49.0,-41.0,7.0
1904-01-01 00:36:44.877782109,E4_Acc,2024-06-28 07:12:42.110860109,-49.0,-41.0,7.0
1904-01-01 00:36:44.909032109,E4_Acc,2024-06-28 07:12:42.142110109,-49.0,-41.0,7.0
1904-01-01 00:36:44.940291884,E4_Acc,2024-06-28 07:12:42.173369884,-49.0,-42.0,7.0
1904-01-01 00:36:44.971541884,E4_Acc,2024-06-28 07:12:42.204619884,-49.0,-42.0,7.0
1904-01-01 00:36:45.002791884,E4_Acc,2024-06-28 07:12:42.235869884,-49.0,-42.0,7.0
1904-01-01 00:36:45.034041883,E4_Acc,2024-06-28 07:12:42.267119883,-49.0,-41.0,7.0
1904-01-01 00:36:45.065291884,E4_Acc,2024-06-28 07:12:42.298369884,-49.0,-41.0,7.0
1904-01-01 00:36:45.096541884,E4_Acc,2024-06-28 07:12:42.329619884,-49.0,-42.0,7.0
1904-01-01 00:36:45.127791884,E4_Acc,2024-06-28 07:12:42.360869884,-49.0,-42.0,7.0
1904-01-01 00:36:45.159051898,E4_Acc,2024-06-28 07:12:42.392129898,-49.0,-41.0,7.0
1904-01-01 00:36:45.190301898,E4_Acc,2024-06-28 07:12:42.423379898,-49.0,-42.0,7.0
1904-01-01 00:36:45.221551898,E4_Acc,2024-06-28 07:12:42.454629898,-49.0,-42.0,7.0
1904-01-01 00:36:45.252801898,E4_Acc,2024-06-28 07:12:42.485879898,-49.0,-41.0,7.0
1904-01-01 00:36:45.284051898,E4_Acc,2024-06-28 07:12:42.517129898,-49.0,-42.0,6.0
1904-01-01 00:36:45.315301898,E4_Acc,2024-06-28 07:12:42.548379898,-49.0,-41.0,7.0
1904-01-01 00:36:45.346551898,E4_Acc,2024-06-28 07:12:42.579629898,-49.0,-41.0,7.0
1904-01-01 00:36:45.377811912,E4_Acc,2024-06-28 07:12:42.610889912,-49.0,-41.0,6.0
1904-01-01 00:36:45.409061912,E4_Acc,2024-06-28 07:12:42.642139912,-50.0,-42.0,6.0
1904-01-01 00:36:45.440311912,E4_Acc,2024-06-28 07:12:42.673389912,-49.0,-42.0,7.0
1904-01-01 00:36:45.471561912,E4_Acc,2024-06-28 07:12:42.704639912,-49.0,-42.0,6.0
1904-01-01 00:36:45.502811912,E4_Acc,2024-06-28 07:12:42.735889912,-49.0,-42.0,7.0
1904-01-01 00:36:45.534061912,E4_Acc,2024-06-28 07:12:42.767139912,-49.0,-41.0,6.0
1904-01-01 00:36:45.565311912,E4_Acc,2024-06-28 07:12:42.798389912,-50.0,-42.0,7.0
1904-01-01 00:36:45.596571925,E4_Acc,2024-06-28 07:12:42.829649925,-50.0,-42.0,6.0
1904-01-01 00:36:45.627821925,E4_Acc,2024-06-28 07:12:42.860899925,-49.0,-42.0,7.0
1904-01-01 00:36:45.659071925,E4_Acc,2024-06-28 07:12:42.892149925,-49.0,-41.0,7.0
1904-01-01 00:36:45.690321925,E4_Acc,2024-06-28 07:12:42.923399925,-49.0,-41.0,7.0
1904-01-01 00:36:45.721571925,E4_Acc,2024-06-28 07:12:42.954649925,-50.0,-42.0,6.0
1904-01-01 00:36:45.752821925,E4_Acc,2024-06-28 07:12:42.985899925,-49.0,-42.0,6.0
1904-01-01 00:36:45.784071925,E4_Acc,2024-06-28 07:12:43.017149925,-49.0,-42.0,6.0
1904-01-01 00:36:45.815331939,E4_Acc,2024-06-28 07:12:43.048409939,-49.0,-42.0,6.0
1904-01-01 00:36:45.846581939,E4_Acc,2024-06-28 07:12:43.079659939,-49.0,-41.0,6.0
1904-01-01 00:36:45.877831939,E4_Acc,2024-06-28 07:12:43.110909939,-49.0,-42.0,7.0
1904-01-01 00:36:45.909081939,E4_Acc,2024-06-28 07:12:43.142159939,-50.0,-42.0,7.0
1904-01-01 00:36:45.940331939,E4_Acc,2024-06-28 07:12:43.173409939,-50.0,-42.0,7.0
1904-01-01 00:36:45.971581939,E4_Acc,2024-06-28 07:12:43.204659939,-49.0,-41.0,7.0
1904-01-01 00:36:46.002831939,E4_Acc,2024-06-28 07:12:43.235909939,-49.0,-41.0,6.0
1904-01-01 00:36:46.034091952,E4_Acc,2024-06-28 07:12:43.267169952,-49.0,-42.0,7.0
1904-01-01 00:36:46.065341952,E4_Acc,2024-06-28 07:12:43.298419952,-49.0,-42.0,7.0
1904-01-01 00:36:46.096591952,E4_Acc,2024-06-28 07:12:43.329669952,-49.0,-41.0,7.0
1904-01-01 00:36:46.127841952,E4_Acc,2024-06-28 07:12:43.360919952,-49.0,-41.0,7.0
1904-01-01 00:36:46.159091952,E4_Acc,2024-06-28 07:12:43.392169952,-49.0,-41.0,7.0
1904-01-01 00:36:46.190341952,E4_Acc,2024-06-28 07:12:43.423419952,-49.0,-41.0,7.0
1904-01-01 00:36:46.221591952,E4_Acc,2024-06-28 07:12:43.454669952,-49.0,-41.0,7.0
1904-01-01 00:36:46.252851966,E4_Acc,2024-06-28 07:12:43.485929966,-49.0,-41.0,7.0
1904-01-01 00:36:46.284101966,E4_Acc,2024-06-28 07:12:43.517179966,-49.0,-41.0,7.0
1904-01-01 00:36:46.315351966,E4_Acc,2024-06-28 07:12:43.548429966,-50.0,-41.0,7.0
1904-01-01 00:36:46.346601966,E4_Acc,2024-06-28 07:12:43.579679966,-50.0,-41.0,7.0
1904-01-01 00:36:46.377851966,E4_Acc,2024-06-28 07:12:43.610929966,-49.0,-41.0,7.0
1904-01-01 00:36:46.409101966,E4_Acc,2024-06-28 07:12:43.642179966,-49.0,-42.0,7.0
1904-01-01 00:36:46.440351966,E4_Acc,2024-06-28 07:12:43.673429966,-49.0,-41.0,7.0
1904-01-01 00:36:46.471611980,E4_Acc,2024-06-28 07:12:43.704689980,-49.0,-41.0,7.0
1904-01-01 00:36:46.502861980,E4_Acc,2024-06-28 07:12:43.735939980,-50.0,-42.0,7.0
1904-01-01 00:36:46.534111980,E4_Acc,2024-06-28 07:12:43.767189980,-50.0,-42.0,7.0
1904-01-01 00:36:46.565361980,E4_Acc,2024-06-28 07:12:43.798439980,-49.0,-42.0,7.0
1904-01-01 00:36:46.596611980,E4_Acc,2024-06-28 07:12:43.829689980,-49.0,-41.0,7.0
1904-01-01 00:36:46.627861980,E4_Acc,2024-06-28 07:12:43.860939980,-49.0,-42.0,7.0
1904-01-01 00:36:46.659111980,E4_Acc,2024-06-28 07:12:43.892189980,-49.0,-42.0,7.0
1904-01-01 00:36:46.690371993,E4_Acc,2024-06-28 07:12:43.923449993,-49.0,-42.0,7.0
1904-01-01 00:36:46.721621993,E4_Acc,2024-06-28 07:12:43.954699993,-49.0,-41.0,7.0
1904-01-01 00:36:46.752871993,E4_Acc,2024-06-28 07:12:43.985949993,-49.0,-41.0,7.0
1904-01-01 00:36:46.784121993,E4_Acc,2024-06-28 07:12:44.017199993,-49.0,-41.0,7.0
1904-01-01 00:36:46.815371993,E4_Acc,2024-06-28 07:12:44.048449993,-49.0,-42.0,7.0
1904-01-01 00:36:46.846621993,E4_Acc,2024-06-28 07:12:44.079699993,-50.0,-42.0,8.0
1904-01-01 00:36:46.877882007,E4_Acc,2024-06-28 07:12:44.110960007,-49.0,-42.0,7.0
1904-01-01 00:36:46.909132007,E4_Acc,2024-06-28 07:12:44.142210007,-49.0,-41.0,7.0
1904-01-01 00:36:46.940382007,E4_Acc,2024-06-28 07:12:44.173460007,-49.0,-42.0,7.0
1904-01-01 00:36:46.971632007,E4_Acc,2024-06-28 07:12:44.204710007,-49.0,-41.0,7.0
1904-01-01 00:36:47.002882007,E4_Acc,2024-06-28 07:12:44.235960007,-49.0,-41.0,7.0
1904-01-01 00:36:47.034132007,E4_Acc,2024-06-28 07:12:44.267210007,-49.0,-41.0,7.0
1904-01-01 00:36:47.065382007,E4_Acc,2024-06-28 07:12:44.298460007,-49.0,-41.0,7.0
1904-01-01 00:36:47.096642020,E4_Acc,2024-06-28 07:12:44.329720020,-49.0,-41.0,7.0
1904-01-01 00:36:47.127892020,E4_Acc,2024-06-28 07:12:44.360970020,-49.0,-41.0,7.0
1904-01-01 00:36:47.159142020,E4_Acc,2024-06-28 07:12:44.392220020,-49.0,-42.0,6.0
1904-01-01 00:36:47.190392020,E4_Acc,2024-06-28 07:12:44.423470020,-49.0,-41.0,6.0
1904-01-01 00:36:47.221642020,E4_Acc,2024-06-28 07:12:44.454720020,-49.0,-41.0,6.0
1904-01-01 00:36:47.252892020,E4_Acc,2024-06-28 07:12:44.485970020,-49.0,-42.0,7.0
1904-01-01 00:36:47.284142020,E4_Acc,2024-06-28 07:12:44.517220020,-50.0,-42.0,7.0
1904-01-01 00:36:47.315402034,E4_Acc,2024-06-28 07:12:44.548480034,-49.0,-42.0,6.0
1904-01-01 00:36:47.346652034,E4_Acc,2024-06-28 07:12:44.579730034,-49.0,-41.0,6.0
1904-01-01 00:36:47.377902034,E4_Acc,2024-06-28 07:12:44.610980034,-49.0,-41.0,6.0
1904-01-01 00:36:47.409152034,E4_Acc,2024-06-28 07:12:44.642230034,-50.0,-42.0,7.0
1904-01-01 00:36:47.440402034,E4_Acc,2024-06-28 07:12:44.673480034,-49.0,-41.0,7.0
1904-01-01 00:36:47.471652034,E4_Acc,2024-06-28 07:12:44.704730034,-50.0,-42.0,7.0
1904-01-01 00:36:47.502902034,E4_Acc,2024-06-28 07:12:44.735980034,-49.0,-42.0,7.0
1904-01-01 00:36:47.534162047,E4_Acc,2024-06-28 07:12:44.767240047,-49.0,-42.0,6.0
1904-01-01 00:36:47.565412047,E4_Acc,2024-06-28 07:12:44.798490047,-49.0,-42.0,7.0
1904-01-01 00:36:47.596662047,E4_Acc,2024-06-28 07:12:44.829740047,-49.0,-42.0,7.0
1904-01-01 00:36:47.627912047,E4_Acc,2024-06-28 07:12:44.860990047,-49.0,-42.0,7.0
1904-01-01 00:36:47.659162047,E4_Acc,2024-06-28 07:12:44.892240047,-49.0,-42.0,7.0
1904-01-01 00:36:47.690412047,E4_Acc,2024-06-28 07:12:44.923490047,-49.0,-41.0,7.0
1904-01-01 00:36:47.721662047,E4_Acc,2024-06-28 07:12:44.954740047,-49.0,-41.0,7.0
1904-01-01 00:36:47.752922061,E4_Acc,2024-06-28 07:12:44.986000061,-49.0,-42.0,7.0
1904-01-01 00:36:47.784172061,E4_Acc,2024-06-28 07:12:45.017250061,-49.0,-41.0,7.0
1904-01-01 00:36:47.815422061,E4_Acc,2024-06-28 07:12:45.048500061,-49.0,-41.0,7.0
1904-01-01 00:36:47.846672061,E4_Acc,2024-06-28 07:12:45.079750061,-49.0,-41.0,7.0
1904-01-01 00:36:47.877922061,E4_Acc,2024-06-28 07:12:45.111000061,-49.0,-42.0,7.0
1904-01-01 00:36:47.909172061,E4_Acc,2024-06-28 07:12:45.142250061,-49.0,-42.0,7.0
1904-01-01 00:36:47.940422061,E4_Acc,2024-06-28 07:12:45.173500061,-49.0,-42.0,6.0
1904-01-01 00:36:47.971682075,E4_Acc,2024-06-28 07:12:45.204760075,-49.0,-42.0,6.0
1904-01-01 00:36:48.002932075,E4_Acc,2024-06-28 07:12:45.236010075,-48.0,-42.0,6.0
1904-01-01 00:36:48.034182075,E4_Acc,2024-06-28 07:12:45.267260075,-50.0,-41.0,7.0
1904-01-01 00:36:48.065432075,E4_Acc,2024-06-28 07:12:45.298510075,-49.0,-42.0,7.0
1904-01-01 00:36:48.096682075,E4_Acc,2024-06-28 07:12:45.329760075,-49.0,-42.0,7.0
1904-01-01 00:36:48.127932075,E4_Acc,2024-06-28 07:12:45.361010075,-49.0,-42.0,7.0
1904-01-01 00:36:48.159182075,E4_Acc,2024-06-28 07:12:45.392260075,-49.0,-42.0,6.0
1904-01-01 00:36:48.190442088,E4_Acc,2024-06-28 07:12:45.423520088,-49.0,-42.0,6.0
1904-01-01 00:36:48.221692088,E4_Acc,2024-06-28 07:12:45.454770088,-49.0,-42.0,6.0
1904-01-01 00:36:48.252942088,E4_Acc,2024-06-28 07:12:45.486020088,-49.0,-42.0,6.0
1904-01-01 00:36:48.284192087,E4_Acc,2024-06-28 07:12:45.517270087,-49.0,-42.0,6.0
1904-01-01 00:36:48.315442088,E4_Acc,2024-06-28 07:12:45.548520088,-49.0,-42.0,7.0
1904-01-01 00:36:48.346692088,E4_Acc,2024-06-28 07:12:45.579770088,-49.0,-42.0,6.0
1904-01-01 00:36:48.377942088,E4_Acc,2024-06-28 07:12:45.611020088,-49.0,-42.0,6.0
1904-01-01 00:36:48.409202102,E4_Acc,2024-06-28 07:12:45.642280102,-49.0,-42.0,6.0
1904-01-01 00:36:48.440452102,E4_Acc,2024-06-28 07:12:45.673530102,-49.0,-42.0,6.0
1904-01-01 00:36:48.471702102,E4_Acc,2024-06-28 07:12:45.704780102,-50.0,-42.0,7.0
1904-01-01 00:36:48.502952102,E4_Acc,2024-06-28 07:12:45.736030102,-49.0,-42.0,6.0
1904-01-01 00:36:48.534202102,E4_Acc,2024-06-28 07:12:45.767280102,-49.0,-42.0,6.0
1904-01-01 00:36:48.565452102,E4_Acc,2024-06-28 07:12:45.798530102,-49.0,-42.0,6.0
1904-01-01 00:36:48.596702102,E4_Acc,2024-06-28 07:12:45.829780102,-49.0,-42.0,6.0
1904-01-01 00:36:48.627962115,E4_Acc,2024-06-28 07:12:45.861040115,-49.0,-42.0,6.0
1904-01-01 00:36:48.659212115,E4_Acc,2024-06-28 07:12:45.892290115,-49.0,-42.0,7.0
1904-01-01 00:36:48.690462115,E4_Acc,2024-06-28 07:12:45.923540115,-49.0,-42.0,6.0
1904-01-01 00:36:48.721712115,E4_Acc,2024-06-28 07:12:45.954790115,-49.0,-42.0,6.0
1904-01-01 00:36:48.752962115,E4_Acc,2024-06-28 07:12:45.986040115,-49.0,-42.0,6.0
1904-01-01 00:36:48.784212115,E4_Acc,2024-06-28 07:12:46.017290115,-49.0,-42.0,7.0
1904-01-01 00:36:48.815462115,E4_Acc,2024-06-28 07:12:46.048540115,-49.0,-41.0,6.0
1904-01-01 00:36:48.846721891,E4_Acc,2024-06-28 07:12:46.079799891,-49.0,-41.0,6.0
1904-01-01 00:36:48.877971891,E4_Acc,2024-06-28 07:12:46.111049891,-49.0,-42.0,6.0
1904-01-01 00:36:48.909221891,E4_Acc,2024-06-28 07:12:46.142299891,-49.0,-42.0,6.0
1904-01-01 00:36:48.940471891,E4_Acc,2024-06-28 07:12:46.173549891,-49.0,-42.0,6.0
1904-01-01 00:36:48.971721891,E4_Acc,2024-06-28 07:12:46.204799891,-49.0,-41.0,6.0
1904-01-01 00:36:49.002971891,E4_Acc,2024-06-28 07:12:46.236049891,-49.0,-41.0,6.0
1904-01-01 00:36:49.034221891,E4_Acc,2024-06-28 07:12:46.267299891,-49.0,-41.0,6.0
1904-01-01 00:36:49.065481904,E4_Acc,2024-06-28 07:12:46.298559904,-49.0,-42.0,7.0
1904-01-01 00:36:49.096731904,E4_Acc,2024-06-28 07:12:46.329809904,-49.0,-41.0,7.0
1904-01-01 00:36:49.127981904,E4_Acc,2024-06-28 07:12:46.361059904,-49.0,-41.0,7.0
1904-01-01 00:36:49.159231904,E4_Acc,2024-06-28 07:12:46.392309904,-49.0,-41.0,7.0
1904-01-01 00:36:49.190481904,E4_Acc,2024-06-28 07:12:46.423559904,-49.0,-42.0,7.0
1904-01-01 00:36:49.221731904,E4_Acc,2024-06-28 07:12:46.454809904,-49.0,-42.0,7.0
1904-01-01 00:36:49.252981904,E4_Acc,2024-06-28 07:12:46.486059904,-49.0,-41.0,6.0
1904-01-01 00:36:49.284241918,E4_Acc,2024-06-28 07:12:46.517319918,-49.0,-42.0,7.0
1904-01-01 00:36:49.315491918,E4_Acc,2024-06-28 07:12:46.548569918,-50.0,-42.0,7.0
1904-01-01 00:36:49.346741918,E4_Acc,2024-06-28 07:12:46.579819918,-49.0,-42.0,7.0
1904-01-01 00:36:49.377991918,E4_Acc,2024-06-28 07:12:46.611069918,-49.0,-42.0,6.0
1904-01-01 00:36:49.409241918,E4_Acc,2024-06-28 07:12:46.642319918,-50.0,-42.0,6.0
1904-01-01 00:36:49.440491918,E4_Acc,2024-06-28 07:12:46.673569918,-49.0,-42.0,6.0
1904-01-01 00:36:49.471751931,E4_Acc,2024-06-28 07:12:46.704829931,-49.0,-42.0,6.0
1904-01-01 00:36:49.503001931,E4_Acc,2024-06-28 07:12:46.736079931,-49.0,-41.0,6.0
1904-01-01 00:36:49.534251931,E4_Acc,2024-06-28 07:12:46.767329931,-49.0,-42.0,6.0
1904-01-01 00:36:49.565501931,E4_Acc,2024-06-28 07:12:46.798579931,-49.0,-42.0,6.0
1904-01-01 00:36:49.596751931,E4_Acc,2024-06-28 07:12:46.829829931,-50.0,-42.0,6.0
1904-01-01 00:36:49.628001931,E4_Acc,2024-06-28 07:12:46.861079931,-49.0,-42.0,6.0
1904-01-01 00:36:49.659251931,E4_Acc,2024-06-28 07:12:46.892329931,-49.0,-42.0,6.0
1904-01-01 00:36:49.690511945,E4_Acc,2024-06-28 07:12:46.923589945,-49.0,-41.0,6.0
1904-01-01 00:36:49.721761945,E4_Acc,2024-06-28 07:12:46.954839945,-49.0,-42.0,6.0
1904-01-01 00:36:49.753011945,E4_Acc,2024-06-28 07:12:46.986089945,-49.0,-42.0,7.0
1904-01-01 00:36:49.784261945,E4_Acc,2024-06-28 07:12:47.017339945,-49.0,-42.0,6.0
1904-01-01 00:36:49.815511945,E4_Acc,2024-06-28 07:12:47.048589945,-49.0,-42.0,6.0
1904-01-01 00:36:49.846761945,E4_Acc,2024-06-28 07:12:47.079839945,-49.0,-42.0,6.0
1904-01-01 00:36:49.878011945,E4_Acc,2024-06-28 07:12:47.111089945,-49.0,-42.0,7.0
1904-01-01 00:36:49.909271958,E4_Acc,2024-06-28 07:12:47.142349958,-49.0,-42.0,7.0
1904-01-01 00:36:49.940521958,E4_Acc,2024-06-28 07:12:47.173599958,-49.0,-42.0,7.0
1904-01-01 00:36:49.971771958,E4_Acc,2024-06-28 07:12:47.204849958,-49.0,-42.0,6.0
1904-01-01 00:36:50.003021958,E4_Acc,2024-06-28 07:12:47.236099958,-49.0,-42.0,6.0
1904-01-01 00:36:50.034271958,E4_Acc,2024-06-28 07:12:47.267349958,-49.0,-42.0,6.0
1904-01-01 00:36:50.065521958,E4_Acc,2024-06-28 07:12:47.298599958,-49.0,-42.0,7.0
1904-01-01 00:36:50.096771958,E4_Acc,2024-06-28 07:12:47.329849958,-49.0,-42.0,7.0
1904-01-01 00:36:50.128031972,E4_Acc,2024-06-28 07:12:47.361109972,-49.0,-42.0,6.0
1904-01-01 00:36:50.159281972,E4_Acc,2024-06-28 07:12:47.392359972,-49.0,-41.0,7.0
1904-01-01 00:36:50.190531972,E4_Acc,2024-06-28 07:12:47.423609972,-49.0,-42.0,7.0
1904-01-01 00:36:50.221781972,E4_Acc,2024-06-28 07:12:47.454859972,-49.0,-42.0,7.0
1904-01-01 00:36:50.253031972,E4_Acc,2024-06-28 07:12:47.486109972,-49.0,-41.0,7.0
1904-01-01 00:36:50.284281971,E4_Acc,2024-06-28 07:12:47.517359971,-49.0,-41.0,7.0
1904-01-01 00:36:50.315531972,E4_Acc,2024-06-28 07:12:47.548609972,-49.0,-41.0,7.0
1904-01-01 00:36:50.346791986,E4_Acc,2024-06-28 07:12:47.579869986,-50.0,-41.0,7.0
1904-01-01 00:36:50.378041986,E4_Acc,2024-06-28 07:12:47.611119986,-49.0,-41.0,7.0
1904-01-01 00:36:50.409291986,E4_Acc,2024-06-28 07:12:47.642369986,-49.0,-41.0,7.0
1904-01-01 00:36:50.440541986,E4_Acc,2024-06-28 07:12:47.673619986,-49.0,-41.0,7.0
1904-01-01 00:36:50.471791986,E4_Acc,2024-06-28 07:12:47.704869986,-49.0,-42.0,7.0
1904-01-01 00:36:50.503041986,E4_Acc,2024-06-28 07:12:47.736119986,-49.0,-42.0,7.0
1904-01-01 00:36:50.534291986,E4_Acc,2024-06-28 07:12:47.767369986,-50.0,-42.0,8.0
1904-01-01 00:36:50.565551999,E4_Acc,2024-06-28 07:12:47.798629999,-49.0,-41.0,8.0
1904-01-01 00:36:50.596801999,E4_Acc,2024-06-28 07:12:47.829879999,-49.0,-41.0,7.0
1904-01-01 00:36:50.628051999,E4_Acc,2024-06-28 07:12:47.861129999,-49.0,-42.0,7.0
1904-01-01 00:36:50.659301999,E4_Acc,2024-06-28 07:12:47.892379999,-49.0,-42.0,7.0
1904-01-01 00:36:50.690551999,E4_Acc,2024-06-28 07:12:47.923629999,-49.0,-42.0,7.0
1904-01-01 00:36:50.721801999,E4_Acc,2024-06-28 07:12:47.954879999,-49.0,-41.0,7.0
1904-01-01 00:36:50.753051999,E4_Acc,2024-06-28 07:12:47.986129999,-49.0,-41.0,7.0
1904-01-01 00:36:50.784312013,E4_Acc,2024-06-28 07:12:48.017390013,-49.0,-41.0,7.0
1904-01-01 00:36:50.815562013,E4_Acc,2024-06-28 07:12:48.048640013,-49.0,-42.0,7.0
1904-01-01 00:36:50.846812013,E4_Acc,2024-06-28 07:12:48.079890013,-49.0,-42.0,7.0
1904-01-01 00:36:50.878062013,E4_Acc,2024-06-28 07:12:48.111140013,-49.0,-42.0,7.0
1904-01-01 00:36:50.909312013,E4_Acc,2024-06-28 07:12:48.142390013,-49.0,-42.0,7.0
1904-01-01 00:36:50.940562013,E4_Acc,2024-06-28 07:12:48.173640013,-49.0,-42.0,7.0
1904-01-01 00:36:50.971812013,E4_Acc,2024-06-28 07:12:48.204890013,-49.0,-41.0,7.0
1904-01-01 00:36:51.003072026,E4_Acc,2024-06-28 07:12:48.236150026,-49.0,-41.0,7.0
1904-01-01 00:36:51.034322026,E4_Acc,2024-06-28 07:12:48.267400026,-49.0,-41.0,7.0
1904-01-01 00:36:51.065572026,E4_Acc,2024-06-28 07:12:48.298650026,-49.0,-42.0,7.0
1904-01-01 00:36:51.096822026,E4_Acc,2024-06-28 07:12:48.329900026,-49.0,-41.0,7.0
1904-01-01 00:36:51.128072026,E4_Acc,2024-06-28 07:12:48.361150026,-49.0,-41.0,7.0
1904-01-01 00:36:51.159322026,E4_Acc,2024-06-28 07:12:48.392400026,-49.0,-42.0,7.0
1904-01-01 00:36:51.190572026,E4_Acc,2024-06-28 07:12:48.423650026,-49.0,-42.0,7.0
1904-01-01 00:36:51.221832040,E4_Acc,2024-06-28 07:12:48.454910040,-49.0,-42.0,7.0
1904-01-01 00:36:51.253082040,E4_Acc,2024-06-28 07:12:48.486160040,-49.0,-42.0,7.0
1904-01-01 00:36:51.284332040,E4_Acc,2024-06-28 07:12:48.517410040,-50.0,-42.0,8.0
1904-01-01 00:36:51.315582040,E4_Acc,2024-06-28 07:12:48.548660040,-49.0,-41.0,7.0
1904-01-01 00:36:51.346832040,E4_Acc,2024-06-28 07:12:48.579910040,-49.0,-41.0,7.0
1904-01-01 00:36:51.378082040,E4_Acc,2024-06-28 07:12:48.611160040,-50.0,-42.0,7.0
1904-01-01 00:36:51.409332040,E4_Acc,2024-06-28 07:12:48.642410040,-50.0,-42.0,7.0
1904-01-01 00:36:51.440592053,E4_Acc,2024-06-28 07:12:48.673670053,-49.0,-42.0,7.0
1904-01-01 00:36:51.471842053,E4_Acc,2024-06-28 07:12:48.704920053,-47.0,-41.0,7.0
1904-01-01 00:36:51.503092053,E4_Acc,2024-06-28 07:12:48.736170053,-48.0,-41.0,6.0
1904-01-01 00:36:51.534342053,E4_Acc,2024-06-28 07:12:48.767420053,-50.0,-42.0,7.0
1904-01-01 00:36:51.565592053,E4_Acc,2024-06-28 07:12:48.798670053,-50.0,-41.0,7.0
1904-01-01 00:36:51.596842053,E4_Acc,2024-06-28 07:12:48.829920053,-49.0,-41.0,7.0
1904-01-01 00:36:51.628092053,E4_Acc,2024-06-28 07:12:48.861170053,-49.0,-41.0,6.0
1904-01-01 00:36:51.659352067,E4_Acc,2024-06-28 07:12:48.892430067,-49.0,-41.0,7.0
1904-01-01 00:36:51.690602067,E4_Acc,2024-06-28 07:12:48.923680067,-49.0,-42.0,7.0
1904-01-01 00:36:51.721852067,E4_Acc,2024-06-28 07:12:48.954930067,-49.0,-42.0,6.0
1904-01-01 00:36:51.753102067,E4_Acc,2024-06-28 07:12:48.986180067,-49.0,-41.0,7.0
1904-01-01 00:36:51.784352067,E4_Acc,2024-06-28 07:12:49.017430067,-49.0,-42.0,6.0
1904-01-01 00:36:51.815602067,E4_Acc,2024-06-28 07:12:49.048680067,-49.0,-42.0,6.0
1904-01-01 00:36:51.846862081,E4_Acc,2024-06-28 07:12:49.079940081,-49.0,-42.0,7.0
1904-01-01 00:36:51.878112081,E4_Acc,2024-06-28 07:12:49.111190081,-49.0,-42.0,6.0
1904-01-01 00:36:51.909362081,E4_Acc,2024-06-28 07:12:49.142440081,-50.0,-42.0,7.0
1904-01-01 00:36:51.940612081,E4_Acc,2024-06-28 07:12:49.173690081,-49.0,-41.0,7.0
1904-01-01 00:36:51.971862081,E4_Acc,2024-06-28 07:12:49.204940081,-49.0,-42.0,7.0
1904-01-01 00:36:52.003112081,E4_Acc,2024-06-28 07:12:49.236190081,-49.0,-42.0,6.0
1904-01-01 00:36:52.034362081,E4_Acc,2024-06-28 07:12:49.267440081,-49.0,-42.0,7.0
1904-01-01 00:36:52.065622094,E4_Acc,2024-06-28 07:12:49.298700094,-49.0,-42.0,7.0
1904-01-01 00:36:52.096872094,E4_Acc,2024-06-28 07:12:49.329950094,-49.0,-42.0,7.0
1904-01-01 00:36:52.128122094,E4_Acc,2024-06-28 07:12:49.361200094,-49.0,-41.0,7.0
1904-01-01 00:36:52.159372094,E4_Acc,2024-06-28 07:12:49.392450094,-49.0,-42.0,7.0
1904-01-01 00:36:52.190622094,E4_Acc,2024-06-28 07:12:49.423700094,-49.0,-42.0,7.0
1904-01-01 00:36:52.221872094,E4_Acc,2024-06-28 07:12:49.454950094,-49.0,-42.0,7.0
1904-01-01 00:36:52.253122094,E4_Acc,2024-06-28 07:12:49.486200094,-49.0,-41.0,7.0
1904-01-01 00:36:52.284382108,E4_Acc,2024-06-28 07:12:49.517460108,-49.0,-41.0,7.0
1904-01-01 00:36:52.315632108,E4_Acc,2024-06-28 07:12:49.548710108,-49.0,-42.0,7.0
1904-01-01 00:36:52.346882108,E4_Acc,2024-06-28 07:12:49.579960108,-49.0,-42.0,7.0
1904-01-01 00:36:52.378132108,E4_Acc,2024-06-28 07:12:49.611210108,-49.0,-42.0,7.0
1904-01-01 00:36:52.409382108,E4_Acc,2024-06-28 07:12:49.642460108,-49.0,-41.0,7.0
1904-01-01 00:36:52.440632108,E4_Acc,2024-06-28 07:12:49.673710108,-49.0,-42.0,7.0
1904-01-01 00:36:52.471882108,E4_Acc,2024-06-28 07:12:49.704960108,-49.0,-42.0,7.0
1904-01-01 00:36:52.503141883,E4_Acc,2024-06-28 07:12:49.736219883,-49.0,-42.0,7.0
1904-01-01 00:36:52.534391883,E4_Acc,2024-06-28 07:12:49.767469883,-49.0,-42.0,7.0
1904-01-01 00:36:52.565641883,E4_Acc,2024-06-28 07:12:49.798719883,-49.0,-42.0,7.0
1904-01-01 00:36:52.596891883,E4_Acc,2024-06-28 07:12:49.829969883,-49.0,-42.0,7.0
1904-01-01 00:36:52.628141883,E4_Acc,2024-06-28 07:12:49.861219883,-49.0,-42.0,7.0
1904-01-01 00:36:52.659391883,E4_Acc,2024-06-28 07:12:49.892469883,-49.0,-42.0,7.0
1904-01-01 00:36:52.690641883,E4_Acc,2024-06-28 07:12:49.923719883,-49.0,-41.0,7.0
1904-01-01 00:36:52.721901897,E4_Acc,2024-06-28 07:12:49.954979897,-49.0,-42.0,7.0
1904-01-01 00:36:52.753151897,E4_Acc,2024-06-28 07:12:49.986229897,-49.0,-42.0,7.0
1904-01-01 00:36:52.784401897,E4_Acc,2024-06-28 07:12:50.017479897,-49.0,-42.0,7.0
1904-01-01 00:36:52.815651897,E4_Acc,2024-06-28 07:12:50.048729897,-49.0,-42.0,7.0
1904-01-01 00:36:52.846901897,E4_Acc,2024-06-28 07:12:50.079979897,-49.0,-42.0,7.0
1904-01-01 00:36:52.878151897,E4_Acc,2024-06-28 07:12:50.111229897,-49.0,-41.0,7.0
1904-01-01 00:36:52.909401897,E4_Acc,2024-06-28 07:12:50.142479897,-49.0,-42.0,7.0
1904-01-01 00:36:52.940661910,E4_Acc,2024-06-28 07:12:50.173739910,-49.0,-42.0,7.0
1904-01-01 00:36:52.971911910,E4_Acc,2024-06-28 07:12:50.204989910,-49.0,-42.0,7.0
1904-01-01 00:36:53.003161910,E4_Acc,2024-06-28 07:12:50.236239910,-49.0,-42.0,7.0
1904-01-01 00:36:53.034411910,E4_Acc,2024-06-28 07:12:50.267489910,-49.0,-42.0,7.0
1904-01-01 00:36:53.065661910,E4_Acc,2024-06-28 07:12:50.298739910,-49.0,-42.0,7.0
1904-01-01 00:36:53.096911910,E4_Acc,2024-06-28 07:12:50.329989910,-49.0,-42.0,7.0
1904-01-01 00:36:53.128161910,E4_Acc,2024-06-28 07:12:50.361239910,-49.0,-42.0,7.0
1904-01-01 00:36:53.159421924,E4_Acc,2024-06-28 07:12:50.392499924,-49.0,-41.0,7.0
1904-01-01 00:36:53.190671924,E4_Acc,2024-06-28 07:12:50.423749924,-49.0,-41.0,7.0
1904-01-01 00:36:53.221921924,E4_Acc,2024-06-28 07:12:50.454999924,-49.0,-42.0,7.0
1904-01-01 00:36:53.253171924,E4_Acc,2024-06-28 07:12:50.486249924,-49.0,-42.0,7.0
1904-01-01 00:36:53.284421924,E4_Acc,2024-06-28 07:12:50.517499924,-49.0,-42.0,7.0
1904-01-01 00:36:53.315671924,E4_Acc,2024-06-28 07:12:50.548749924,-49.0,-41.0,7.0
1904-01-01 00:36:53.346921924,E4_Acc,2024-06-28 07:12:50.579999924,-49.0,-42.0,7.0
1904-01-01 00:36:53.378181937,E4_Acc,2024-06-28 07:12:50.611259937,-49.0,-42.0,6.0
1904-01-01 00:36:53.409431937,E4_Acc,2024-06-28 07:12:50.642509937,-49.0,-42.0,6.0
1904-01-01 00:36:53.440681937,E4_Acc,2024-06-28 07:12:50.673759937,-49.0,-42.0,7.0
1904-01-01 00:36:53.471931937,E4_Acc,2024-06-28 07:12:50.705009937,-49.0,-42.0,7.0
1904-01-01 00:36:53.503181937,E4_Acc,2024-06-28 07:12:50.736259937,-49.0,-42.0,7.0
1904-01-01 00:36:53.534431937,E4_Acc,2024-06-28 07:12:50.767509937,-49.0,-42.0,7.0
1904-01-01 00:36:53.565681937,E4_Acc,2024-06-28 07:12:50.798759937,-49.0,-42.0,7.0
1904-01-01 00:36:53.596941951,E4_Acc,2024-06-28 07:12:50.830019951,-49.0,-42.0,7.0
1904-01-01 00:36:53.628191951,E4_Acc,2024-06-28 07:12:50.861269951,-49.0,-41.0,7.0
1904-01-01 00:36:53.659441951,E4_Acc,2024-06-28 07:12:50.892519951,-49.0,-42.0,7.0
1904-01-01 00:36:53.690691951,E4_Acc,2024-06-28 07:12:50.923769951,-49.0,-42.0,7.0
1904-01-01 00:36:53.721941951,E4_Acc,2024-06-28 07:12:50.955019951,-49.0,-42.0,7.0
1904-01-01 00:36:53.753191951,E4_Acc,2024-06-28 07:12:50.986269951,-49.0,-42.0,7.0
1904-01-01 00:36:53.784441951,E4_Acc,2024-06-28 07:12:51.017519951,-49.0,-42.0,7.0
1904-01-01 00:36:53.815701964,E4_Acc,2024-06-28 07:12:51.048779964,-49.0,-42.0,7.0
1904-01-01 00:36:53.846951964,E4_Acc,2024-06-28 07:12:51.080029964,-49.0,-42.0,7.0
1904-01-01 00:36:53.878201964,E4_Acc,2024-06-28 07:12:51.111279964,-49.0,-41.0,6.0
1904-01-01 00:36:53.909451964,E4_Acc,2024-06-28 07:12:51.142529964,-48.0,-43.0,9.0
1904-01-01 00:36:53.940701964,E4_Acc,2024-06-28 07:12:51.173779964,-48.0,-42.0,7.0
1904-01-01 00:36:53.971951964,E4_Acc,2024-06-28 07:12:51.205029964,-49.0,-42.0,7.0
1904-01-01 00:36:54.003201964,E4_Acc,2024-06-28 07:12:51.236279964,-49.0,-41.0,8.0
1904-01-01 00:36:54.034461978,E4_Acc,2024-06-28 07:12:51.267539978,-49.0,-41.0,8.0
1904-01-01 00:36:54.065711978,E4_Acc,2024-06-28 07:12:51.298789978,-48.0,-41.0,8.0
1904-01-01 00:36:54.096961978,E4_Acc,2024-06-28 07:12:51.330039978,-49.0,-42.0,7.0
1904-01-01 00:36:54.128211978,E4_Acc,2024-06-28 07:12:51.361289978,-49.0,-42.0,7.0
1904-01-01 00:36:54.159461978,E4_Acc,2024-06-28 07:12:51.392539978,-49.0,-42.0,7.0
1904-01-01 00:36:54.190711978,E4_Acc,2024-06-28 07:12:51.423789978,-49.0,-42.0,7.0
1904-01-01 00:36:54.221961978,E4_Acc,2024-06-28 07:12:51.455039978,-49.0,-41.0,7.0
1904-01-01 00:36:54.253221992,E4_Acc,2024-06-28 07:12:51.486299992,-49.0,-41.0,7.0
1904-01-01 00:36:54.284471991,E4_Acc,2024-06-28 07:12:51.517549991,-49.0,-42.0,7.0
1904-01-01 00:36:54.315721992,E4_Acc,2024-06-28 07:12:51.548799992,-49.0,-42.0,7.0
1904-01-01 00:36:54.346971992,E4_Acc,2024-06-28 07:12:51.580049992,-49.0,-42.0,7.0
1904-01-01 00:36:54.378221992,E4_Acc,2024-06-28 07:12:51.611299992,-49.0,-42.0,7.0
1904-01-01 00:36:54.409471992,E4_Acc,2024-06-28 07:12:51.642549992,-49.0,-42.0,7.0
1904-01-01 00:36:54.440732005,E4_Acc,2024-06-28 07:12:51.673810005,-49.0,-42.0,7.0
1904-01-01 00:36:54.471982005,E4_Acc,2024-06-28 07:12:51.705060005,-49.0,-42.0,7.0
1904-01-01 00:36:54.503232005,E4_Acc,2024-06-28 07:12:51.736310005,-49.0,-42.0,7.0
1904-01-01 00:36:54.534482005,E4_Acc,2024-06-28 07:12:51.767560005,-49.0,-42.0,7.0
1904-01-01 00:36:54.565732005,E4_Acc,2024-06-28 07:12:51.798810005,-49.0,-42.0,7.0
1904-01-01 00:36:54.596982005,E4_Acc,2024-06-28 07:12:51.830060005,-49.0,-42.0,7.0
1904-01-01 00:36:54.628232005,E4_Acc,2024-06-28 07:12:51.861310005,-49.0,-42.0,7.0
1904-01-01 00:36:54.659492019,E4_Acc,2024-06-28 07:12:51.892570019,-49.0,-42.0,7.0
1904-01-01 00:36:54.690742019,E4_Acc,2024-06-28 07:12:51.923820019,-49.0,-42.0,7.0
1904-01-01 00:36:54.721992019,E4_Acc,2024-06-28 07:12:51.955070019,-49.0,-42.0,7.0
1904-01-01 00:36:54.753242019,E4_Acc,2024-06-28 07:12:51.986320019,-49.0,-42.0,7.0
1904-01-01 00:36:54.784492019,E4_Acc,2024-06-28 07:12:52.017570019,-49.0,-42.0,7.0
1904-01-01 00:36:54.815742019,E4_Acc,2024-06-28 07:12:52.048820019,-49.0,-42.0,7.0
1904-01-01 00:36:54.846992019,E4_Acc,2024-06-28 07:12:52.080070019,-49.0,-42.0,7.0
1904-01-01 00:36:54.878252032,E4_Acc,2024-06-28 07:12:52.111330032,-49.0,-42.0,7.0
1904-01-01 00:36:54.909502032,E4_Acc,2024-06-28 07:12:52.142580032,-49.0,-42.0,7.0
1904-01-01 00:36:54.940752032,E4_Acc,2024-06-28 07:12:52.173830032,-49.0,-41.0,7.0
1904-01-01 00:36:54.972002032,E4_Acc,2024-06-28 07:12:52.205080032,-49.0,-41.0,7.0
1904-01-01 00:36:55.003252032,E4_Acc,2024-06-28 07:12:52.236330032,-49.0,-41.0,7.0
1904-01-01 00:36:55.034502032,E4_Acc,2024-06-28 07:12:52.267580032,-50.0,-42.0,6.0
1904-01-01 00:36:55.065752032,E4_Acc,2024-06-28 07:12:52.298830032,-49.0,-41.0,7.0
1904-01-01 00:36:55.097012046,E4_Acc,2024-06-28 07:12:52.330090046,-49.0,-41.0,7.0
1904-01-01 00:36:55.128262046,E4_Acc,2024-06-28 07:12:52.361340046,-49.0,-41.0,7.0
1904-01-01 00:36:55.159512046,E4_Acc,2024-06-28 07:12:52.392590046,-49.0,-41.0,7.0
1904-01-01 00:36:55.190762046,E4_Acc,2024-06-28 07:12:52.423840046,-49.0,-41.0,7.0
1904-01-01 00:36:55.222012046,E4_Acc,2024-06-28 07:12:52.455090046,-49.0,-41.0,7.0
1904-01-01 00:36:55.253262046,E4_Acc,2024-06-28 07:12:52.486340046,-50.0,-42.0,7.0
1904-01-01 00:36:55.284512046,E4_Acc,2024-06-28 07:12:52.517590046,-50.0,-41.0,7.0
1904-01-01 00:36:55.315772060,E4_Acc,2024-06-28 07:12:52.548850060,-49.0,-41.0,7.0
1904-01-01 00:36:55.347022060,E4_Acc,2024-06-28 07:12:52.580100060,-49.0,-42.0,7.0
1904-01-01 00:36:55.378272060,E4_Acc,2024-06-28 07:12:52.611350060,-49.0,-42.0,7.0
1904-01-01 00:36:55.409522060,E4_Acc,2024-06-28 07:12:52.642600060,-49.0,-42.0,7.0
1904-01-01 00:36:55.440772060,E4_Acc,2024-06-28 07:12:52.673850060,-49.0,-41.0,7.0
1904-01-01 00:36:55.472022060,E4_Acc,2024-06-28 07:12:52.705100060,-49.0,-41.0,7.0
1904-01-01 00:36:55.503272060,E4_Acc,2024-06-28 07:12:52.736350060,-49.0,-41.0,7.0
1904-01-01 00:36:55.534532073,E4_Acc,2024-06-28 07:12:52.767610073,-49.0,-42.0,7.0
1904-01-01 00:36:55.565782073,E4_Acc,2024-06-28 07:12:52.798860073,-49.0,-42.0,7.0
1904-01-01 00:36:55.597032073,E4_Acc,2024-06-28 07:12:52.830110073,-49.0,-42.0,7.0
1904-01-01 00:36:55.628282073,E4_Acc,2024-06-28 07:12:52.861360073,-49.0,-42.0,7.0
1904-01-01 00:36:55.659532073,E4_Acc,2024-06-28 07:12:52.892610073,-49.0,-42.0,6.0
1904-01-01 00:36:55.690782073,E4_Acc,2024-06-28 07:12:52.923860073,-49.0,-41.0,6.0
1904-01-01 00:36:55.722032073,E4_Acc,2024-06-28 07:12:52.955110073,-49.0,-42.0,6.0
1904-01-01 00:36:55.753292087,E4_Acc,2024-06-28 07:12:52.986370087,-49.0,-42.0,6.0
1904-01-01 00:36:55.784542087,E4_Acc,2024-06-28 07:12:53.017620087,-49.0,-42.0,6.0
1904-01-01 00:36:55.815792087,E4_Acc,2024-06-28 07:12:53.048870087,-49.0,-42.0,7.0
1904-01-01 00:36:55.847042087,E4_Acc,2024-06-28 07:12:53.080120087,-49.0,-42.0,7.0
1904-01-01 00:36:55.878292087,E4_Acc,2024-06-28 07:12:53.111370087,-49.0,-42.0,7.0
1904-01-01 00:36:55.909542087,E4_Acc,2024-06-28 07:12:53.142620087,-49.0,-42.0,6.0
1904-01-01 00:36:55.940792087,E4_Acc,2024-06-28 07:12:53.173870087,-49.0,-42.0,6.0
1904-01-01 00:36:55.972052100,E4_Acc,2024-06-28 07:12:53.205130100,-49.0,-42.0,7.0
1904-01-01 00:36:56.003302100,E4_Acc,2024-06-28 07:12:53.236380100,-49.0,-41.0,7.0
1904-01-01 00:36:56.034552099,E4_Acc,2024-06-28 07:12:53.267630099,-49.0,-41.0,6.0
1904-01-01 00:36:56.065802100,E4_Acc,2024-06-28 07:12:53.298880100,-49.0,-42.0,6.0
1904-01-01 00:36:56.097052100,E4_Acc,2024-06-28 07:12:53.330130100,-50.0,-42.0,6.0
1904-01-01 00:36:56.128302100,E4_Acc,2024-06-28 07:12:53.361380100,-49.0,-42.0,7.0
1904-01-01 00:36:56.159552100,E4_Acc,2024-06-28 07:12:53.392630100,-49.0,-42.0,6.0
1904-01-01 00:36:56.190812114,E4_Acc,2024-06-28 07:12:53.423890114,-49.0,-41.0,6.0
1904-01-01 00:36:56.222062114,E4_Acc,2024-06-28 07:12:53.455140114,-49.0,-42.0,6.0
1904-01-01 00:36:56.253312114,E4_Acc,2024-06-28 07:12:53.486390114,-50.0,-42.0,6.0
1904-01-01 00:36:56.284562114,E4_Acc,2024-06-28 07:12:53.517640114,-49.0,-41.0,6.0
1904-01-01 00:36:56.315812114,E4_Acc,2024-06-28 07:12:53.548890114,-49.0,-41.0,6.0
1904-01-01 00:36:56.347062114,E4_Acc,2024-06-28 07:12:53.580140114,-49.0,-41.0,6.0
1904-01-01 00:36:56.378312114,E4_Acc,2024-06-28 07:12:53.611390114,-49.0,-42.0,6.0
1904-01-01 00:36:56.409571889,E4_Acc,2024-06-28 07:12:53.642649889,-49.0,-42.0,6.0
1904-01-01 00:36:56.440821889,E4_Acc,2024-06-28 07:12:53.673899889,-49.0,-41.0,6.0
1904-01-01 00:36:56.472071889,E4_Acc,2024-06-28 07:12:53.705149889,-49.0,-41.0,6.0
1904-01-01 00:36:56.503321889,E4_Acc,2024-06-28 07:12:53.736399889,-49.0,-41.0,6.0
1904-01-01 00:36:56.534571889,E4_Acc,2024-06-28 07:12:53.767649889,-49.0,-42.0,6.0
1904-01-01 00:36:56.565821889,E4_Acc,2024-06-28 07:12:53.798899889,-49.0,-42.0,6.0
1904-01-01 00:36:56.597071889,E4_Acc,2024-06-28 07:12:53.830149889,-49.0,-41.0,6.0
1904-01-01 00:36:56.628331903,E4_Acc,2024-06-28 07:12:53.861409903,-49.0,-41.0,6.0
1904-01-01 00:36:56.659581903,E4_Acc,2024-06-28 07:12:53.892659903,-49.0,-41.0,6.0
1904-01-01 00:36:56.690831903,E4_Acc,2024-06-28 07:12:53.923909903,-49.0,-42.0,6.0
1904-01-01 00:36:56.722081903,E4_Acc,2024-06-28 07:12:53.955159903,-50.0,-41.0,6.0
1904-01-01 00:36:56.753331903,E4_Acc,2024-06-28 07:12:53.986409903,-49.0,-41.0,6.0
1904-01-01 00:36:56.784581903,E4_Acc,2024-06-28 07:12:54.017659903,-49.0,-42.0,6.0
1904-01-01 00:36:56.815841916,E4_Acc,2024-06-28 07:12:54.048919916,-49.0,-42.0,6.0
1904-01-01 00:36:56.847091916,E4_Acc,2024-06-28 07:12:54.080169916,-49.0,-42.0,6.0
1904-01-01 00:36:56.878341916,E4_Acc,2024-06-28 07:12:54.111419916,-49.0,-42.0,6.0
1904-01-01 00:36:56.909591916,E4_Acc,2024-06-28 07:12:54.142669916,-49.0,-41.0,6.0
1904-01-01 00:36:56.940841916,E4_Acc,2024-06-28 07:12:54.173919916,-49.0,-41.0,6.0
1904-01-01 00:36:56.972091916,E4_Acc,2024-06-28 07:12:54.205169916,-49.0,-41.0,6.0
1904-01-01 00:36:57.003341916,E4_Acc,2024-06-28 07:12:54.236419916,-49.0,-42.0,6.0
1904-01-01 00:36:57.034601930,E4_Acc,2024-06-28 07:12:54.267679930,-49.0,-42.0,6.0
1904-01-01 00:36:57.065851930,E4_Acc,2024-06-28 07:12:54.298929930,-49.0,-42.0,6.0
1904-01-01 00:36:57.097101930,E4_Acc,2024-06-28 07:12:54.330179930,-49.0,-42.0,6.0
1904-01-01 00:36:57.128351930,E4_Acc,2024-06-28 07:12:54.361429930,-49.0,-41.0,6.0
1904-01-01 00:36:57.159601930,E4_Acc,2024-06-28 07:12:54.392679930,-49.0,-42.0,6.0
1904-01-01 00:36:57.190851930,E4_Acc,2024-06-28 07:12:54.423929930,-49.0,-42.0,6.0
1904-01-01 00:36:57.222101930,E4_Acc,2024-06-28 07:12:54.455179930,-49.0,-41.0,6.0
1904-01-01 00:36:57.253361943,E4_Acc,2024-06-28 07:12:54.486439943,-49.0,-42.0,6.0
1904-01-01 00:36:57.284611943,E4_Acc,2024-06-28 07:12:54.517689943,-49.0,-41.0,6.0
1904-01-01 00:36:57.315861943,E4_Acc,2024-06-28 07:12:54.548939943,-49.0,-42.0,6.0
1904-01-01 00:36:57.347111943,E4_Acc,2024-06-28 07:12:54.580189943,-49.0,-42.0,6.0
1904-01-01 00:36:57.378361943,E4_Acc,2024-06-28 07:12:54.611439943,-49.0,-42.0,6.0
1904-01-01 00:36:57.409611943,E4_Acc,2024-06-28 07:12:54.642689943,-49.0,-42.0,6.0
1904-01-01 00:36:57.440861943,E4_Acc,2024-06-28 07:12:54.673939943,-49.0,-42.0,6.0
1904-01-01 00:36:57.472121957,E4_Acc,2024-06-28 07:12:54.705199957,-49.0,-42.0,6.0
1904-01-01 00:36:57.503371957,E4_Acc,2024-06-28 07:12:54.736449957,-49.0,-42.0,6.0
1904-01-01 00:36:57.534621957,E4_Acc,2024-06-28 07:12:54.767699957,-49.0,-42.0,6.0
1904-01-01 00:36:57.565871957,E4_Acc,2024-06-28 07:12:54.798949957,-49.0,-42.0,7.0
1904-01-01 00:36:57.597121957,E4_Acc,2024-06-28 07:12:54.830199957,-49.0,-41.0,7.0
1904-01-01 00:36:57.628371957,E4_Acc,2024-06-28 07:12:54.861449957,-49.0,-42.0,7.0
1904-01-01 00:36:57.659621957,E4_Acc,2024-06-28 07:12:54.892699957,-49.0,-42.0,7.0
1904-01-01 00:36:57.690881970,E4_Acc,2024-06-28 07:12:54.923959970,-49.0,-42.0,7.0
1904-01-01 00:36:57.722131970,E4_Acc,2024-06-28 07:12:54.955209970,-49.0,-42.0,7.0
1904-01-01 00:36:57.753381970,E4_Acc,2024-06-28 07:12:54.986459970,-50.0,-42.0,7.0
1904-01-01 00:36:57.784631970,E4_Acc,2024-06-28 07:12:55.017709970,-49.0,-42.0,7.0
1904-01-01 00:36:57.815881970,E4_Acc,2024-06-28 07:12:55.048959970,-49.0,-42.0,7.0
1904-01-01 00:36:57.847131970,E4_Acc,2024-06-28 07:12:55.080209970,-49.0,-42.0,8.0
1904-01-01 00:36:57.878381970,E4_Acc,2024-06-28 07:12:55.111459970,-48.0,-41.0,7.0
1904-01-01 00:36:57.909641984,E4_Acc,2024-06-28 07:12:55.142719984,-49.0,-41.0,7.0
1904-01-01 00:36:57.940891984,E4_Acc,2024-06-28 07:12:55.173969984,-49.0,-42.0,7.0
1904-01-01 00:36:57.972141984,E4_Acc,2024-06-28 07:12:55.205219984,-49.0,-42.0,7.0
1904-01-01 00:36:58.003391984,E4_Acc,2024-06-28 07:12:55.236469984,-49.0,-42.0,7.0
1904-01-01 00:36:58.034641984,E4_Acc,2024-06-28 07:12:55.267719984,-49.0,-42.0,7.0
1904-01-01 00:36:58.065891984,E4_Acc,2024-06-28 07:12:55.298969984,-49.0,-42.0,7.0
1904-01-01 00:36:58.097141984,E4_Acc,2024-06-28 07:12:55.330219984,-49.0,-41.0,7.0
1904-01-01 00:36:58.128401998,E4_Acc,2024-06-28 07:12:55.361479998,-49.0,-42.0,7.0
1904-01-01 00:36:58.159651998,E4_Acc,2024-06-28 07:12:55.392729998,-49.0,-42.0,7.0
1904-01-01 00:36:58.190901998,E4_Acc,2024-06-28 07:12:55.423979998,-49.0,-42.0,7.0
1904-01-01 00:36:58.222151998,E4_Acc,2024-06-28 07:12:55.455229998,-49.0,-42.0,7.0
1904-01-01 00:36:58.253401998,E4_Acc,2024-06-28 07:12:55.486479998,-49.0,-42.0,7.0
1904-01-01 00:36:58.284651997,E4_Acc,2024-06-28 07:12:55.517729997,-49.0,-42.0,7.0
1904-01-01 00:36:58.315901998,E4_Acc,2024-06-28 07:12:55.548979998,-49.0,-42.0,7.0
1904-01-01 00:36:58.347162011,E4_Acc,2024-06-28 07:12:55.580240011,-49.0,-42.0,7.0
1904-01-01 00:36:58.378412011,E4_Acc,2024-06-28 07:12:55.611490011,-49.0,-42.0,7.0
1904-01-01 00:36:58.409662011,E4_Acc,2024-06-28 07:12:55.642740011,-49.0,-42.0,7.0
1904-01-01 00:36:58.440912011,E4_Acc,2024-06-28 07:12:55.673990011,-49.0,-42.0,7.0
1904-01-01 00:36:58.472162011,E4_Acc,2024-06-28 07:12:55.705240011,-49.0,-42.0,7.0
1904-01-01 00:36:58.503412011,E4_Acc,2024-06-28 07:12:55.736490011,-49.0,-42.0,7.0
1904-01-01 00:36:58.534662011,E4_Acc,2024-06-28 07:12:55.767740011,-49.0,-42.0,7.0
1904-01-01 00:36:58.565922025,E4_Acc,2024-06-28 07:12:55.799000025,-49.0,-42.0,6.0
1904-01-01 00:36:58.597172025,E4_Acc,2024-06-28 07:12:55.830250025,-49.0,-42.0,7.0
1904-01-01 00:36:58.628422025,E4_Acc,2024-06-28 07:12:55.861500025,-49.0,-42.0,7.0
1904-01-01 00:36:58.659672025,E4_Acc,2024-06-28 07:12:55.892750025,-49.0,-42.0,7.0
1904-01-01 00:36:58.690922025,E4_Acc,2024-06-28 07:12:55.924000025,-49.0,-42.0,6.0
1904-01-01 00:36:58.722172025,E4_Acc,2024-06-28 07:12:55.955250025,-49.0,-42.0,7.0
1904-01-01 00:36:58.753422025,E4_Acc,2024-06-28 07:12:55.986500025,-50.0,-42.0,7.0
1904-01-01 00:36:58.784682038,E4_Acc,2024-06-28 07:12:56.017760038,-49.0,-42.0,7.0
1904-01-01 00:36:58.815932038,E4_Acc,2024-06-28 07:12:56.049010038,-49.0,-41.0,6.0
1904-01-01 00:36:58.847182038,E4_Acc,2024-06-28 07:12:56.080260038,-49.0,-41.0,6.0
1904-01-01 00:36:58.878432038,E4_Acc,2024-06-28 07:12:56.111510038,-49.0,-42.0,7.0
1904-01-01 00:36:58.909682038,E4_Acc,2024-06-28 07:12:56.142760038,-49.0,-42.0,7.0
1904-01-01 00:36:58.940932038,E4_Acc,2024-06-28 07:12:56.174010038,-49.0,-42.0,7.0
1904-01-01 00:36:58.972192052,E4_Acc,2024-06-28 07:12:56.205270052,-49.0,-42.0,7.0
1904-01-01 00:36:59.003442052,E4_Acc,2024-06-28 07:12:56.236520052,-49.0,-41.0,7.0
1904-01-01 00:36:59.034692051,E4_Acc,2024-06-28 07:12:56.267770051,-49.0,-41.0,7.0
1904-01-01 00:36:59.065942052,E4_Acc,2024-06-28 07:12:56.299020052,-49.0,-41.0,7.0
1904-01-01 00:36:59.097192052,E4_Acc,2024-06-28 07:12:56.330270052,-49.0,-41.0,7.0
1904-01-01 00:36:59.128442052,E4_Acc,2024-06-28 07:12:56.361520052,-49.0,-42.0,7.0
1904-01-01 00:36:59.159692052,E4_Acc,2024-06-28 07:12:56.392770052,-49.0,-42.0,7.0
1904-01-01 00:36:59.190952066,E4_Acc,2024-06-28 07:12:56.424030066,-49.0,-41.0,7.0
1904-01-01 00:36:59.222202066,E4_Acc,2024-06-28 07:12:56.455280066,-49.0,-41.0,7.0
1904-01-01 00:36:59.253452066,E4_Acc,2024-06-28 07:12:56.486530066,-49.0,-41.0,7.0
1904-01-01 00:36:59.284702066,E4_Acc,2024-06-28 07:12:56.517780066,-49.0,-41.0,7.0
1904-01-01 00:36:59.315952066,E4_Acc,2024-06-28 07:12:56.549030066,-49.0,-42.0,7.0
1904-01-01 00:36:59.347202066,E4_Acc,2024-06-28 07:12:56.580280066,-49.0,-42.0,7.0
1904-01-01 00:36:59.378452066,E4_Acc,2024-06-28 07:12:56.611530066,-49.0,-41.0,8.0
1904-01-01 00:36:59.409712079,E4_Acc,2024-06-28 07:12:56.642790079,-49.0,-41.0,7.0
1904-01-01 00:36:59.440962079,E4_Acc,2024-06-28 07:12:56.674040079,-49.0,-41.0,7.0
1904-01-01 00:36:59.472212079,E4_Acc,2024-06-28 07:12:56.705290079,-49.0,-42.0,7.0
1904-01-01 00:36:59.503462079,E4_Acc,2024-06-28 07:12:56.736540079,-49.0,-41.0,7.0
1904-01-01 00:36:59.534712079,E4_Acc,2024-06-28 07:12:56.767790079,-50.0,-41.0,7.0
1904-01-01 00:36:59.565962079,E4_Acc,2024-06-28 07:12:56.799040079,-50.0,-41.0,8.0
1904-01-01 00:36:59.597212079,E4_Acc,2024-06-28 07:12:56.830290079,-49.0,-41.0,8.0
1904-01-01 00:36:59.628472093,E4_Acc,2024-06-28 07:12:56.861550093,-49.0,-41.0,7.0
1904-01-01 00:36:59.659722093,E4_Acc,2024-06-28 07:12:56.892800093,-49.0,-41.0,7.0
1904-01-01 00:36:59.690972093,E4_Acc,2024-06-28 07:12:56.924050093,-49.0,-41.0,7.0
1904-01-01 00:36:59.722222093,E4_Acc,2024-06-28 07:12:56.955300093,-49.0,-41.0,7.0
1904-01-01 00:36:59.753472093,E4_Acc,2024-06-28 07:12:56.986550093,-49.0,-42.0,8.0
1904-01-01 00:36:59.784722093,E4_Acc,2024-06-28 07:12:57.017800093,-49.0,-42.0,7.0
1904-01-01 00:36:59.815972093,E4_Acc,2024-06-28 07:12:57.049050093,-49.0,-41.0,7.0
1904-01-01 00:36:59.847232106,E4_Acc,2024-06-28 07:12:57.080310106,-49.0,-41.0,7.0
1904-01-01 00:36:59.878482106,E4_Acc,2024-06-28 07:12:57.111560106,-49.0,-41.0,8.0
1904-01-01 00:36:59.909732106,E4_Acc,2024-06-28 07:12:57.142810106,-49.0,-41.0,7.0
1904-01-01 00:36:59.940982106,E4_Acc,2024-06-28 07:12:57.174060106,-49.0,-41.0,7.0
1904-01-01 00:36:59.972232106,E4_Acc,2024-06-28 07:12:57.205310106,-49.0,-42.0,7.0
1904-01-01 00:37:00.003482106,E4_Acc,2024-06-28 07:12:57.236560106,-49.0,-42.0,7.0
1904-01-01 00:37:00.034732106,E4_Acc,2024-06-28 07:12:57.267810106,-49.0,-42.0,7.0
1904-01-01 00:37:00.065991881,E4_Acc,2024-06-28 07:12:57.299069881,-49.0,-41.0,7.0
1904-01-01 00:37:00.097241881,E4_Acc,2024-06-28 07:12:57.330319881,-49.0,-41.0,7.0
1904-01-01 00:37:00.128491881,E4_Acc,2024-06-28 07:12:57.361569881,-49.0,-41.0,7.0
1904-01-01 00:37:00.159741881,E4_Acc,2024-06-28 07:12:57.392819881,-49.0,-42.0,8.0
1904-01-01 00:37:00.190991881,E4_Acc,2024-06-28 07:12:57.424069881,-49.0,-41.0,8.0
1904-01-01 00:37:00.222241881,E4_Acc,2024-06-28 07:12:57.455319881,-49.0,-41.0,8.0
1904-01-01 00:37:00.253491881,E4_Acc,2024-06-28 07:12:57.486569881,-49.0,-42.0,8.0
1904-01-01 00:37:00.284751895,E4_Acc,2024-06-28 07:12:57.517829895,-49.0,-42.0,8.0
1904-01-01 00:37:00.316001895,E4_Acc,2024-06-28 07:12:57.549079895,-50.0,-42.0,8.0
1904-01-01 00:37:00.347251895,E4_Acc,2024-06-28 07:12:57.580329895,-50.0,-42.0,8.0
1904-01-01 00:37:00.378501895,E4_Acc,2024-06-28 07:12:57.611579895,-49.0,-41.0,8.0
1904-01-01 00:37:00.409751895,E4_Acc,2024-06-28 07:12:57.642829895,-49.0,-41.0,7.0
1904-01-01 00:37:00.441001895,E4_Acc,2024-06-28 07:12:57.674079895,-49.0,-41.0,7.0
1904-01-01 00:37:00.472251895,E4_Acc,2024-06-28 07:12:57.705329895,-49.0,-42.0,7.0
1904-01-01 00:37:00.503511909,E4_Acc,2024-06-28 07:12:57.736589909,-50.0,-42.0,7.0
1904-01-01 00:37:00.534761909,E4_Acc,2024-06-28 07:12:57.767839909,-49.0,-42.0,8.0
1904-01-01 00:37:00.566011909,E4_Acc,2024-06-28 07:12:57.799089909,-49.0,-42.0,7.0
1904-01-01 00:37:00.597261909,E4_Acc,2024-06-28 07:12:57.830339909,-49.0,-41.0,7.0
1904-01-01 00:37:00.628511909,E4_Acc,2024-06-28 07:12:57.861589909,-49.0,-42.0,7.0
1904-01-01 00:37:00.659761909,E4_Acc,2024-06-28 07:12:57.892839909,-49.0,-42.0,8.0
1904-01-01 00:37:00.691011909,E4_Acc,2024-06-28 07:12:57.924089909,-49.0,-41.0,8.0
1904-01-01 00:37:00.722271922,E4_Acc,2024-06-28 07:12:57.955349922,-49.0,-41.0,7.0
1904-01-01 00:37:00.753521922,E4_Acc,2024-06-28 07:12:57.986599922,-49.0,-41.0,7.0
1904-01-01 00:37:00.784771922,E4_Acc,2024-06-28 07:12:58.017849922,-50.0,-42.0,8.0
1904-01-01 00:37:00.816021922,E4_Acc,2024-06-28 07:12:58.049099922,-50.0,-42.0,8.0
1904-01-01 00:37:00.847271922,E4_Acc,2024-06-28 07:12:58.080349922,-49.0,-41.0,8.0
1904-01-01 00:37:00.878521922,E4_Acc,2024-06-28 07:12:58.111599922,-49.0,-41.0,8.0
1904-01-01 00:37:00.909771922,E4_Acc,2024-06-28 07:12:58.142849922,-49.0,-41.0,7.0
1904-01-01 00:37:00.941031936,E4_Acc,2024-06-28 07:12:58.174109936,-50.0,-41.0,7.0
1904-01-01 00:37:00.972281936,E4_Acc,2024-06-28 07:12:58.205359936,-50.0,-41.0,7.0
1904-01-01 00:37:01.003531936,E4_Acc,2024-06-28 07:12:58.236609936,-49.0,-41.0,7.0
1904-01-01 00:37:01.034781936,E4_Acc,2024-06-28 07:12:58.267859936,-49.0,-41.0,7.0
1904-01-01 00:37:01.066031936,E4_Acc,2024-06-28 07:12:58.299109936,-49.0,-41.0,7.0
1904-01-01 00:37:01.097281936,E4_Acc,2024-06-28 07:12:58.330359936,-49.0,-42.0,7.0
1904-01-01 00:37:01.128531936,E4_Acc,2024-06-28 07:12:58.361609936,-49.0,-42.0,7.0
1904-01-01 00:37:01.159791949,E4_Acc,2024-06-28 07:12:58.392869949,-49.0,-42.0,8.0
1904-01-01 00:37:01.191041949,E4_Acc,2024-06-28 07:12:58.424119949,-49.0,-41.0,8.0
1904-01-01 00:37:01.222291949,E4_Acc,2024-06-28 07:12:58.455369949,-49.0,-41.0,7.0
1904-01-01 00:37:01.253541949,E4_Acc,2024-06-28 07:12:58.486619949,-49.0,-41.0,7.0
1904-01-01 00:37:01.284791949,E4_Acc,2024-06-28 07:12:58.517869949,-49.0,-41.0,7.0
1904-01-01 00:37:01.316041949,E4_Acc,2024-06-28 07:12:58.549119949,-49.0,-42.0,7.0
1904-01-01 00:37:01.347291949,E4_Acc,2024-06-28 07:12:58.580369949,-49.0,-41.0,8.0
1904-01-01 00:37:01.378551963,E4_Acc,2024-06-28 07:12:58.611629963,-49.0,-41.0,8.0
1904-01-01 00:37:01.409801963,E4_Acc,2024-06-28 07:12:58.642879963,-50.0,-42.0,8.0
1904-01-01 00:37:01.441051963,E4_Acc,2024-06-28 07:12:58.674129963,-50.0,-42.0,8.0
1904-01-01 00:37:01.472301963,E4_Acc,2024-06-28 07:12:58.705379963,-49.0,-41.0,8.0
1904-01-01 00:37:01.503551963,E4_Acc,2024-06-28 07:12:58.736629963,-49.0,-41.0,7.0
1904-01-01 00:37:01.534801963,E4_Acc,2024-06-28 07:12:58.767879963,-49.0,-42.0,8.0
1904-01-01 00:37:01.566051963,E4_Acc,2024-06-28 07:12:58.799129963,-49.0,-42.0,7.0
1904-01-01 00:37:01.597311977,E4_Acc,2024-06-28 07:12:58.830389977,-49.0,-42.0,7.0
1904-01-01 00:37:01.628561977,E4_Acc,2024-06-28 07:12:58.861639977,-49.0,-42.0,8.0
1904-01-01 00:37:01.659811977,E4_Acc,2024-06-28 07:12:58.892889977,-49.0,-42.0,8.0
1904-01-01 00:37:01.691061977,E4_Acc,2024-06-28 07:12:58.924139977,-49.0,-42.0,8.0
1904-01-01 00:37:01.722311977,E4_Acc,2024-06-28 07:12:58.955389977,-49.0,-41.0,8.0
1904-01-01 00:37:01.753561977,E4_Acc,2024-06-28 07:12:58.986639977,-49.0,-42.0,8.0
1904-01-01 00:37:01.784821990,E4_Acc,2024-06-28 07:12:59.017899990,-49.0,-41.0,8.0
1904-01-01 00:37:01.816071990,E4_Acc,2024-06-28 07:12:59.049149990,-49.0,-41.0,8.0
1904-01-01 00:37:01.847321990,E4_Acc,2024-06-28 07:12:59.080399990,-49.0,-41.0,7.0
1904-01-01 00:37:01.878571990,E4_Acc,2024-06-28 07:12:59.111649990,-49.0,-42.0,7.0
1904-01-01 00:37:01.909821990,E4_Acc,2024-06-28 07:12:59.142899990,-49.0,-42.0,7.0
1904-01-01 00:37:01.941071990,E4_Acc,2024-06-28 07:12:59.174149990,-49.0,-42.0,7.0
1904-01-01 00:37:01.972321990,E4_Acc,2024-06-28 07:12:59.205399990,-49.0,-42.0,8.0
1904-01-01 00:37:02.003582004,E4_Acc,2024-06-28 07:12:59.236660004,-49.0,-42.0,8.0
1904-01-01 00:37:02.034832003,E4_Acc,2024-06-28 07:12:59.267910003,-49.0,-42.0,8.0
1904-01-01 00:37:02.066082004,E4_Acc,2024-06-28 07:12:59.299160004,-49.0,-42.0,7.0
1904-01-01 00:37:02.097332004,E4_Acc,2024-06-28 07:12:59.330410004,-49.0,-42.0,7.0
1904-01-01 00:37:02.128582004,E4_Acc,2024-06-28 07:12:59.361660004,-49.0,-41.0,8.0
1904-01-01 00:37:02.159832004,E4_Acc,2024-06-28 07:12:59.392910004,-49.0,-41.0,8.0
1904-01-01 00:37:02.191082004,E4_Acc,2024-06-28 07:12:59.424160004,-49.0,-41.0,8.0
1904-01-01 00:37:02.222342017,E4_Acc,2024-06-28 07:12:59.455420017,-49.0,-41.0,8.0
1904-01-01 00:37:02.253592017,E4_Acc,2024-06-28 07:12:59.486670017,-49.0,-41.0,8.0
1904-01-01 00:37:02.284842017,E4_Acc,2024-06-28 07:12:59.517920017,-49.0,-41.0,8.0
1904-01-01 00:37:02.316092017,E4_Acc,2024-06-28 07:12:59.549170017,-49.0,-41.0,8.0
1904-01-01 00:37:02.347342017,E4_Acc,2024-06-28 07:12:59.580420017,-49.0,-41.0,7.0
1904-01-01 00:37:02.378592017,E4_Acc,2024-06-28 07:12:59.611670017,-49.0,-41.0,8.0
1904-01-01 00:37:02.409842017,E4_Acc,2024-06-28 07:12:59.642920017,-49.0,-41.0,7.0
1904-01-01 00:37:02.441102031,E4_Acc,2024-06-28 07:12:59.674180031,-49.0,-41.0,7.0
1904-01-01 00:37:02.472352031,E4_Acc,2024-06-28 07:12:59.705430031,-49.0,-42.0,7.0
1904-01-01 00:37:02.503602031,E4_Acc,2024-06-28 07:12:59.736680031,-49.0,-42.0,7.0
1904-01-01 00:37:02.534852031,E4_Acc,2024-06-28 07:12:59.767930031,-49.0,-42.0,8.0
1904-01-01 00:37:02.566102031,E4_Acc,2024-06-28 07:12:59.799180031,-49.0,-42.0,8.0
1904-01-01 00:37:02.597352031,E4_Acc,2024-06-28 07:12:59.830430031,-49.0,-41.0,8.0
1904-01-01 00:37:02.628602031,E4_Acc,2024-06-28 07:12:59.861680031,-49.0,-41.0,7.0
1904-01-01 00:37:02.659862044,E4_Acc,2024-06-28 07:12:59.892940044,-50.0,-41.0,7.0
1904-01-01 00:37:02.691112044,E4_Acc,2024-06-28 07:12:59.924190044,-49.0,-41.0,8.0
1904-01-01 00:37:02.722362044,E4_Acc,2024-06-28 07:12:59.955440044,-49.0,-41.0,8.0
1904-01-01 00:37:02.753612044,E4_Acc,2024-06-28 07:12:59.986690044,-49.0,-41.0,8.0
1904-01-01 00:37:02.784862044,E4_Acc,2024-06-28 07:13:00.017940044,-49.0,-41.0,8.0
1904-01-01 00:37:02.816112044,E4_Acc,2024-06-28 07:13:00.049190044,-49.0,-42.0,8.0
1904-01-01 00:37:02.847362044,E4_Acc,2024-06-28 07:13:00.080440044,-49.0,-41.0,8.0
1904-01-01 00:37:02.878622058,E4_Acc,2024-06-28 07:13:00.111700058,-49.0,-41.0,8.0
1904-01-01 00:37:02.909872058,E4_Acc,2024-06-28 07:13:00.142950058,-49.0,-41.0,8.0
1904-01-01 00:37:02.941122058,E4_Acc,2024-06-28 07:13:00.174200058,-49.0,-41.0,8.0
1904-01-01 00:37:02.972372058,E4_Acc,2024-06-28 07:13:00.205450058,-49.0,-41.0,8.0
1904-01-01 00:37:03.003622058,E4_Acc,2024-06-28 07:13:00.236700058,-49.0,-41.0,8.0
1904-01-01 00:37:03.034872058,E4_Acc,2024-06-28 07:13:00.267950058,-49.0,-41.0,7.0
1904-01-01 00:37:03.066122058,E4_Acc,2024-06-28 07:13:00.299200058,-49.0,-41.0,8.0
1904-01-01 00:37:03.097382072,E4_Acc,2024-06-28 07:13:00.330460072,-49.0,-42.0,8.0
1904-01-01 00:37:03.128632072,E4_Acc,2024-06-28 07:13:00.361710072,-49.0,-42.0,8.0
1904-01-01 00:37:03.159882072,E4_Acc,2024-06-28 07:13:00.392960072,-49.0,-41.0,8.0
1904-01-01 00:37:03.191132072,E4_Acc,2024-06-28 07:13:00.424210072,-50.0,-41.0,8.0
1904-01-01 00:37:03.222382072,E4_Acc,2024-06-28 07:13:00.455460072,-49.0,-41.0,8.0
1904-01-01 00:37:03.253632072,E4_Acc,2024-06-28 07:13:00.486710072,-49.0,-41.0,8.0
1904-01-01 00:37:03.284882072,E4_Acc,2024-06-28 07:13:00.517960072,-49.0,-41.0,8.0
1904-01-01 00:37:03.316142085,E4_Acc,2024-06-28 07:13:00.549220085,-49.0,-41.0,8.0
1904-01-01 00:37:03.347392085,E4_Acc,2024-06-28 07:13:00.580470085,-50.0,-41.0,8.0
1904-01-01 00:37:03.378642085,E4_Acc,2024-06-28 07:13:00.611720085,-49.0,-41.0,8.0
1904-01-01 00:37:03.409892085,E4_Acc,2024-06-28 07:13:00.642970085,-49.0,-41.0,8.0
1904-01-01 00:37:03.441142085,E4_Acc,2024-06-28 07:13:00.674220085,-49.0,-41.0,8.0
1904-01-01 00:37:03.472392085,E4_Acc,2024-06-28 07:13:00.705470085,-49.0,-41.0,8.0
1904-01-01 00:37:03.503642085,E4_Acc,2024-06-28 07:13:00.736720085,-49.0,-41.0,8.0
1904-01-01 00:37:03.534902099,E4_Acc,2024-06-28 07:13:00.767980099,-49.0,-41.0,8.0
1904-01-01 00:37:03.566152099,E4_Acc,2024-06-28 07:13:00.799230099,-49.0,-41.0,7.0
1904-01-01 00:37:03.597402099,E4_Acc,2024-06-28 07:13:00.830480099,-50.0,-42.0,8.0
1904-01-01 00:37:03.628652099,E4_Acc,2024-06-28 07:13:00.861730099,-49.0,-42.0,8.0
1904-01-01 00:37:03.659902099,E4_Acc,2024-06-28 07:13:00.892980099,-49.0,-42.0,8.0
1904-01-01 00:37:03.691152099,E4_Acc,2024-06-28 07:13:00.924230099,-49.0,-41.0,8.0
1904-01-01 00:37:03.722402099,E4_Acc,2024-06-28 07:13:00.955480099,-49.0,-41.0,8.0
1904-01-01 00:37:03.753662112,E4_Acc,2024-06-28 07:13:00.986740112,-49.0,-42.0,8.0
1904-01-01 00:37:03.784912112,E4_Acc,2024-06-28 07:13:01.017990112,-49.0,-42.0,8.0
1904-01-01 00:37:03.816162112,E4_Acc,2024-06-28 07:13:01.049240112,-49.0,-41.0,8.0
1904-01-01 00:37:03.847412112,E4_Acc,2024-06-28 07:13:01.080490112,-49.0,-41.0,8.0
1904-01-01 00:37:03.878662112,E4_Acc,2024-06-28 07:13:01.111740112,-50.0,-41.0,7.0
1904-01-01 00:37:03.909912112,E4_Acc,2024-06-28 07:13:01.142990112,-50.0,-41.0,8.0
1904-01-01 00:37:03.941162112,E4_Acc,2024-06-28 07:13:01.174240112,-49.0,-41.0,8.0
1904-01-01 00:37:03.972421887,E4_Acc,2024-06-28 07:13:01.205499887,-49.0,-41.0,8.0
1904-01-01 00:37:04.003671887,E4_Acc,2024-06-28 07:13:01.236749887,-49.0,-41.0,8.0
1904-01-01 00:37:04.034921887,E4_Acc,2024-06-28 07:13:01.267999887,-49.0,-41.0,8.0
1904-01-01 00:37:04.066171887,E4_Acc,2024-06-28 07:13:01.299249887,-49.0,-41.0,8.0
1904-01-01 00:37:04.097421887,E4_Acc,2024-06-28 07:13:01.330499887,-50.0,-41.0,8.0
1904-01-01 00:37:04.128671887,E4_Acc,2024-06-28 07:13:01.361749887,-49.0,-41.0,8.0
1904-01-01 00:37:04.159931901,E4_Acc,2024-06-28 07:13:01.393009901,-49.0,-41.0,8.0
1904-01-01 00:37:04.191181901,E4_Acc,2024-06-28 07:13:01.424259901,-49.0,-41.0,8.0
1904-01-01 00:37:04.222431901,E4_Acc,2024-06-28 07:13:01.455509901,-50.0,-41.0,8.0
1904-01-01 00:37:04.253681901,E4_Acc,2024-06-28 07:13:01.486759901,-50.0,-41.0,8.0
1904-01-01 00:37:04.284931901,E4_Acc,2024-06-28 07:13:01.518009901,-49.0,-41.0,8.0
1904-01-01 00:37:04.316181901,E4_Acc,2024-06-28 07:13:01.549259901,-49.0,-41.0,8.0
1904-01-01 00:37:04.347431901,E4_Acc,2024-06-28 07:13:01.580509901,-49.0,-41.0,8.0
1904-01-01 00:37:04.378691915,E4_Acc,2024-06-28 07:13:01.611769915,-49.0,-41.0,8.0
1904-01-01 00:37:04.409941915,E4_Acc,2024-06-28 07:13:01.643019915,-50.0,-41.0,8.0
1904-01-01 00:37:04.441191915,E4_Acc,2024-06-28 07:13:01.674269915,-49.0,-41.0,8.0
1904-01-01 00:37:04.472441915,E4_Acc,2024-06-28 07:13:01.705519915,-49.0,-41.0,8.0
1904-01-01 00:37:04.503691915,E4_Acc,2024-06-28 07:13:01.736769915,-49.0,-41.0,8.0
1904-01-01 00:37:04.534941915,E4_Acc,2024-06-28 07:13:01.768019915,-49.0,-41.0,8.0
1904-01-01 00:37:04.566191915,E4_Acc,2024-06-28 07:13:01.799269915,-49.0,-41.0,8.0
1904-01-01 00:37:04.597451928,E4_Acc,2024-06-28 07:13:01.830529928,-49.0,-41.0,8.0
1904-01-01 00:37:04.628701928,E4_Acc,2024-06-28 07:13:01.861779928,-49.0,-41.0,8.0
1904-01-01 00:37:04.659951928,E4_Acc,2024-06-28 07:13:01.893029928,-49.0,-42.0,8.0
1904-01-01 00:37:04.691201928,E4_Acc,2024-06-28 07:13:01.924279928,-50.0,-42.0,8.0
1904-01-01 00:37:04.722451928,E4_Acc,2024-06-28 07:13:01.955529928,-49.0,-41.0,8.0
1904-01-01 00:37:04.753701928,E4_Acc,2024-06-28 07:13:01.986779928,-49.0,-41.0,8.0
1904-01-01 00:37:04.784951928,E4_Acc,2024-06-28 07:13:02.018029928,-49.0,-41.0,8.0
1904-01-01 00:37:04.816211942,E4_Acc,2024-06-28 07:13:02.049289942,-49.0,-41.0,8.0
1904-01-01 00:37:04.847461942,E4_Acc,2024-06-28 07:13:02.080539942,-49.0,-41.0,8.0
1904-01-01 00:37:04.878711942,E4_Acc,2024-06-28 07:13:02.111789942,-49.0,-41.0,8.0
1904-01-01 00:37:04.909961942,E4_Acc,2024-06-28 07:13:02.143039942,-49.0,-41.0,8.0
1904-01-01 00:37:04.941211942,E4_Acc,2024-06-28 07:13:02.174289942,-49.0,-41.0,8.0
1904-01-01 00:37:04.972461942,E4_Acc,2024-06-28 07:13:02.205539942,-49.0,-41.0,8.0
1904-01-01 00:37:05.003711942,E4_Acc,2024-06-28 07:13:02.236789942,-49.0,-41.0,8.0
1904-01-01 00:37:05.034971955,E4_Acc,2024-06-28 07:13:02.268049955,-49.0,-41.0,8.0
1904-01-01 00:37:05.066221955,E4_Acc,2024-06-28 07:13:02.299299955,-49.0,-41.0,8.0
1904-01-01 00:37:05.097471955,E4_Acc,2024-06-28 07:13:02.330549955,-49.0,-41.0,8.0
1904-01-01 00:37:05.128721955,E4_Acc,2024-06-28 07:13:02.361799955,-50.0,-41.0,8.0
1904-01-01 00:37:05.159971955,E4_Acc,2024-06-28 07:13:02.393049955,-50.0,-41.0,8.0
1904-01-01 00:37:05.191221955,E4_Acc,2024-06-28 07:13:02.424299955,-49.0,-41.0,8.0
1904-01-01 00:37:05.222471955,E4_Acc,2024-06-28 07:13:02.455549955,-49.0,-41.0,8.0
1904-01-01 00:37:05.253731969,E4_Acc,2024-06-28 07:13:02.486809969,-49.0,-41.0,8.0
1904-01-01 00:37:05.284981968,E4_Acc,2024-06-28 07:13:02.518059968,-49.0,-41.0,8.0
1904-01-01 00:37:05.316231969,E4_Acc,2024-06-28 07:13:02.549309969,-49.0,-42.0,8.0
1904-01-01 00:37:05.347481969,E4_Acc,2024-06-28 07:13:02.580559969,-49.0,-41.0,8.0
1904-01-01 00:37:05.378731969,E4_Acc,2024-06-28 07:13:02.611809969,-49.0,-41.0,8.0
1904-01-01 00:37:05.409981969,E4_Acc,2024-06-28 07:13:02.643059969,-49.0,-41.0,8.0
1904-01-01 00:37:05.441231969,E4_Acc,2024-06-28 07:13:02.674309969,-50.0,-41.0,8.0
1904-01-01 00:37:05.472491983,E4_Acc,2024-06-28 07:13:02.705569983,-49.0,-41.0,8.0
1904-01-01 00:37:05.503741983,E4_Acc,2024-06-28 07:13:02.736819983,-49.0,-41.0,8.0
1904-01-01 00:37:05.534991983,E4_Acc,2024-06-28 07:13:02.768069983,-49.0,-41.0,8.0
1904-01-01 00:37:05.566241983,E4_Acc,2024-06-28 07:13:02.799319983,-49.0,-41.0,8.0
1904-01-01 00:37:05.597491983,E4_Acc,2024-06-28 07:13:02.830569983,-49.0,-41.0,8.0
1904-01-01 00:37:05.628741983,E4_Acc,2024-06-28 07:13:02.861819983,-49.0,-41.0,8.0
1904-01-01 00:37:05.659991983,E4_Acc,2024-06-28 07:13:02.893069983,-49.0,-41.0,8.0
1904-01-01 00:37:05.691251996,E4_Acc,2024-06-28 07:13:02.924329996,-49.0,-41.0,8.0
1904-01-01 00:37:05.722501996,E4_Acc,2024-06-28 07:13:02.955579996,-49.0,-41.0,8.0
1904-01-01 00:37:05.753751996,E4_Acc,2024-06-28 07:13:02.986829996,-49.0,-41.0,8.0
1904-01-01 00:37:05.785001996,E4_Acc,2024-06-28 07:13:03.018079996,-49.0,-41.0,8.0
1904-01-01 00:37:05.816251996,E4_Acc,2024-06-28 07:13:03.049329996,-49.0,-41.0,8.0
1904-01-01 00:37:05.847501996,E4_Acc,2024-06-28 07:13:03.080579996,-49.0,-41.0,8.0
1904-01-01 00:37:05.878751996,E4_Acc,2024-06-28 07:13:03.111829996,-49.0,-41.0,8.0
1904-01-01 00:37:05.910012010,E4_Acc,2024-06-28 07:13:03.143090010,-49.0,-42.0,8.0
1904-01-01 00:37:05.941262010,E4_Acc,2024-06-28 07:13:03.174340010,-49.0,-41.0,8.0
1904-01-01 00:37:05.972512010,E4_Acc,2024-06-28 07:13:03.205590010,-49.0,-42.0,8.0
1904-01-01 00:37:06.003762010,E4_Acc,2024-06-28 07:13:03.236840010,-49.0,-41.0,8.0
1904-01-01 00:37:06.035012010,E4_Acc,2024-06-28 07:13:03.268090010,-49.0,-41.0,8.0
1904-01-01 00:37:06.066262010,E4_Acc,2024-06-28 07:13:03.299340010,-49.0,-41.0,8.0
1904-01-01 00:37:06.097512010,E4_Acc,2024-06-28 07:13:03.330590010,-49.0,-41.0,8.0
1904-01-01 00:37:06.128772023,E4_Acc,2024-06-28 07:13:03.361850023,-49.0,-41.0,8.0
1904-01-01 00:37:06.160022023,E4_Acc,2024-06-28 07:13:03.393100023,-49.0,-41.0,8.0
1904-01-01 00:37:06.191272023,E4_Acc,2024-06-28 07:13:03.424350023,-49.0,-41.0,8.0
1904-01-01 00:37:06.222522023,E4_Acc,2024-06-28 07:13:03.455600023,-49.0,-41.0,8.0
1904-01-01 00:37:06.253772023,E4_Acc,2024-06-28 07:13:03.486850023,-50.0,-42.0,9.0
1904-01-01 00:37:06.285022023,E4_Acc,2024-06-28 07:13:03.518100023,-50.0,-41.0,8.0
1904-01-01 00:37:06.316282037,E4_Acc,2024-06-28 07:13:03.549360037,-49.0,-41.0,8.0
1904-01-01 00:37:06.347532037,E4_Acc,2024-06-28 07:13:03.580610037,-49.0,-41.0,8.0
1904-01-01 00:37:06.378782037,E4_Acc,2024-06-28 07:13:03.611860037,-49.0,-41.0,8.0
1904-01-01 00:37:06.410032037,E4_Acc,2024-06-28 07:13:03.643110037,-50.0,-41.0,8.0
1904-01-01 00:37:06.441282037,E4_Acc,2024-06-28 07:13:03.674360037,-49.0,-41.0,8.0
1904-01-01 00:37:06.472532037,E4_Acc,2024-06-28 07:13:03.705610037,-49.0,-41.0,8.0
1904-01-01 00:37:06.503782037,E4_Acc,2024-06-28 07:13:03.736860037,-49.0,-41.0,8.0
1904-01-01 00:37:06.535042050,E4_Acc,2024-06-28 07:13:03.768120050,-49.0,-41.0,8.0
1904-01-01 00:37:06.566292050,E4_Acc,2024-06-28 07:13:03.799370050,-49.0,-41.0,8.0
1904-01-01 00:37:06.597542050,E4_Acc,2024-06-28 07:13:03.830620050,-49.0,-41.0,8.0
1904-01-01 00:37:06.628792050,E4_Acc,2024-06-28 07:13:03.861870050,-49.0,-41.0,8.0
1904-01-01 00:37:06.660042050,E4_Acc,2024-06-28 07:13:03.893120050,-49.0,-41.0,8.0
1904-01-01 00:37:06.691292050,E4_Acc,2024-06-28 07:13:03.924370050,-49.0,-41.0,8.0
1904-01-01 00:37:06.722542050,E4_Acc,2024-06-28 07:13:03.955620050,-49.0,-41.0,8.0
1904-01-01 00:37:06.753802064,E4_Acc,2024-06-28 07:13:03.986880064,-49.0,-41.0,8.0
1904-01-01 00:37:06.785052064,E4_Acc,2024-06-28 07:13:04.018130064,-49.0,-41.0,8.0
1904-01-01 00:37:06.816302064,E4_Acc,2024-06-28 07:13:04.049380064,-50.0,-41.0,8.0
1904-01-01 00:37:06.847552064,E4_Acc,2024-06-28 07:13:04.080630064,-50.0,-41.0,8.0
1904-01-01 00:37:06.878802064,E4_Acc,2024-06-28 07:13:04.111880064,-49.0,-41.0,8.0
1904-01-01 00:37:06.910052064,E4_Acc,2024-06-28 07:13:04.143130064,-49.0,-41.0,8.0
1904-01-01 00:37:06.941302064,E4_Acc,2024-06-28 07:13:04.174380064,-49.0,-41.0,7.0
1904-01-01 00:37:06.972562078,E4_Acc,2024-06-28 07:13:04.205640078,-49.0,-41.0,7.0
1904-01-01 00:37:07.003812078,E4_Acc,2024-06-28 07:13:04.236890078,-49.0,-41.0,7.0
1904-01-01 00:37:07.035062078,E4_Acc,2024-06-28 07:13:04.268140078,-50.0,-41.0,8.0
1904-01-01 00:37:07.066312078,E4_Acc,2024-06-28 07:13:04.299390078,-50.0,-41.0,8.0
1904-01-01 00:37:07.097562078,E4_Acc,2024-06-28 07:13:04.330640078,-49.0,-41.0,8.0
1904-01-01 00:37:07.128812078,E4_Acc,2024-06-28 07:13:04.361890078,-50.0,-41.0,8.0
1904-01-01 00:37:07.160062078,E4_Acc,2024-06-28 07:13:04.393140078,-49.0,-41.0,8.0
1904-01-01 00:37:07.191322091,E4_Acc,2024-06-28 07:13:04.424400091,-49.0,-41.0,8.0
1904-01-01 00:37:07.222572091,E4_Acc,2024-06-28 07:13:04.455650091,-49.0,-41.0,8.0
1904-01-01 00:37:07.253822091,E4_Acc,2024-06-28 07:13:04.486900091,-49.0,-41.0,8.0
1904-01-01 00:37:07.285072091,E4_Acc,2024-06-28 07:13:04.518150091,-49.0,-41.0,8.0
1904-01-01 00:37:07.316322091,E4_Acc,2024-06-28 07:13:04.549400091,-50.0,-41.0,8.0
1904-01-01 00:37:07.347572091,E4_Acc,2024-06-28 07:13:04.580650091,-49.0,-41.0,8.0
1904-01-01 00:37:07.378822091,E4_Acc,2024-06-28 07:13:04.611900091,-50.0,-41.0,7.0
1904-01-01 00:37:07.410082105,E4_Acc,2024-06-28 07:13:04.643160105,-49.0,-41.0,8.0
1904-01-01 00:37:07.441332105,E4_Acc,2024-06-28 07:13:04.674410105,-49.0,-41.0,8.0
1904-01-01 00:37:07.472582105,E4_Acc,2024-06-28 07:13:04.705660105,-50.0,-41.0,8.0
1904-01-01 00:37:07.503832105,E4_Acc,2024-06-28 07:13:04.736910105,-49.0,-41.0,8.0
1904-01-01 00:37:07.535082105,E4_Acc,2024-06-28 07:13:04.768160105,-49.0,-41.0,7.0
1904-01-01 00:37:07.566332105,E4_Acc,2024-06-28 07:13:04.799410105,-49.0,-41.0,7.0
1904-01-01 00:37:07.597582105,E4_Acc,2024-06-28 07:13:04.830660105,-49.0,-41.0,7.0
1904-01-01 00:37:07.628842118,E4_Acc,2024-06-28 07:13:04.861920118,-50.0,-41.0,8.0
1904-01-01 00:37:07.660092118,E4_Acc,2024-06-28 07:13:04.893170118,-50.0,-41.0,8.0
1904-01-01 00:37:07.691342118,E4_Acc,2024-06-28 07:13:04.924420118,-50.0,-41.0,8.0
1904-01-01 00:37:07.722592118,E4_Acc,2024-06-28 07:13:04.955670118,-49.0,-41.0,8.0
1904-01-01 00:37:07.753842118,E4_Acc,2024-06-28 07:13:04.986920118,-49.0,-41.0,8.0
1904-01-01 00:37:07.785092118,E4_Acc,2024-06-28 07:13:05.018170118,-50.0,-41.0,8.0
1904-01-01 00:37:07.816342118,E4_Acc,2024-06-28 07:13:05.049420118,-50.0,-41.0,8.0
1904-01-01 00:37:07.847601893,E4_Acc,2024-06-28 07:13:05.080679893,-49.0,-41.0,8.0
1904-01-01 00:37:07.878851893,E4_Acc,2024-06-28 07:13:05.111929893,-49.0,-41.0,8.0
1904-01-01 00:37:07.910101893,E4_Acc,2024-06-28 07:13:05.143179893,-50.0,-41.0,8.0
1904-01-01 00:37:07.941351893,E4_Acc,2024-06-28 07:13:05.174429893,-49.0,-41.0,8.0
1904-01-01 00:37:07.972601893,E4_Acc,2024-06-28 07:13:05.205679893,-49.0,-41.0,8.0
1904-01-01 00:37:08.003851893,E4_Acc,2024-06-28 07:13:05.236929893,-49.0,-41.0,8.0
1904-01-01 00:37:08.035101893,E4_Acc,2024-06-28 07:13:05.268179893,-50.0,-41.0,8.0
1904-01-01 00:37:08.066361907,E4_Acc,2024-06-28 07:13:05.299439907,-49.0,-41.0,8.0
1904-01-01 00:37:08.097611907,E4_Acc,2024-06-28 07:13:05.330689907,-49.0,-41.0,8.0
1904-01-01 00:37:08.128861907,E4_Acc,2024-06-28 07:13:05.361939907,-49.0,-41.0,8.0
1904-01-01 00:37:08.160111907,E4_Acc,2024-06-28 07:13:05.393189907,-49.0,-41.0,8.0
1904-01-01 00:37:08.191361907,E4_Acc,2024-06-28 07:13:05.424439907,-50.0,-42.0,8.0
1904-01-01 00:37:08.222611907,E4_Acc,2024-06-28 07:13:05.455689907,-49.0,-41.0,8.0
1904-01-01 00:37:08.253861907,E4_Acc,2024-06-28 07:13:05.486939907,-49.0,-41.0,8.0
1904-01-01 00:37:08.285121921,E4_Acc,2024-06-28 07:13:05.518199921,-49.0,-42.0,8.0
1904-01-01 00:37:08.316371921,E4_Acc,2024-06-28 07:13:05.549449921,-49.0,-41.0,8.0
1904-01-01 00:37:08.347621921,E4_Acc,2024-06-28 07:13:05.580699921,-50.0,-41.0,8.0
1904-01-01 00:37:08.378871921,E4_Acc,2024-06-28 07:13:05.611949921,-49.0,-41.0,8.0
1904-01-01 00:37:08.410121921,E4_Acc,2024-06-28 07:13:05.643199921,-49.0,-41.0,8.0
1904-01-01 00:37:08.441371921,E4_Acc,2024-06-28 07:13:05.674449921,-49.0,-41.0,8.0
1904-01-01 00:37:08.472621921,E4_Acc,2024-06-28 07:13:05.705699921,-49.0,-42.0,8.0
1904-01-01 00:37:08.503881934,E4_Acc,2024-06-28 07:13:05.736959934,-50.0,-41.0,8.0
1904-01-01 00:37:08.535131934,E4_Acc,2024-06-28 07:13:05.768209934,-50.0,-41.0,8.0
1904-01-01 00:37:08.566381934,E4_Acc,2024-06-28 07:13:05.799459934,-49.0,-41.0,8.0
1904-01-01 00:37:08.597631934,E4_Acc,2024-06-28 07:13:05.830709934,-49.0,-41.0,8.0
1904-01-01 00:37:08.628881934,E4_Acc,2024-06-28 07:13:05.861959934,-49.0,-41.0,8.0
1904-01-01 00:37:08.660131934,E4_Acc,2024-06-28 07:13:05.893209934,-49.0,-41.0,8.0
1904-01-01 00:37:08.691381934,E4_Acc,2024-06-28 07:13:05.924459934,-49.0,-41.0,8.0
1904-01-01 00:37:08.722641948,E4_Acc,2024-06-28 07:13:05.955719948,-49.0,-41.0,8.0
1904-01-01 00:37:08.753891948,E4_Acc,2024-06-28 07:13:05.986969948,-49.0,-41.0,8.0
1904-01-01 00:37:08.785141948,E4_Acc,2024-06-28 07:13:06.018219948,-50.0,-41.0,8.0
1904-01-01 00:37:08.816391948,E4_Acc,2024-06-28 07:13:06.049469948,-49.0,-41.0,8.0
1904-01-01 00:37:08.847641948,E4_Acc,2024-06-28 07:13:06.080719948,-49.0,-41.0,8.0
1904-01-01 00:37:08.878891948,E4_Acc,2024-06-28 07:13:06.111969948,-49.0,-41.0,8.0
1904-01-01 00:37:08.910141948,E4_Acc,2024-06-28 07:13:06.143219948,-49.0,-41.0,8.0
1904-01-01 00:37:08.941401961,E4_Acc,2024-06-28 07:13:06.174479961,-49.0,-41.0,8.0
1904-01-01 00:37:08.972651961,E4_Acc,2024-06-28 07:13:06.205729961,-49.0,-41.0,8.0
1904-01-01 00:37:09.003901961,E4_Acc,2024-06-28 07:13:06.236979961,-50.0,-41.0,9.0
1904-01-01 00:37:09.035151961,E4_Acc,2024-06-28 07:13:06.268229961,-49.0,-41.0,9.0
1904-01-01 00:37:09.066401961,E4_Acc,2024-06-28 07:13:06.299479961,-49.0,-41.0,9.0
1904-01-01 00:37:09.097651961,E4_Acc,2024-06-28 07:13:06.330729961,-49.0,-41.0,9.0
1904-01-01 00:37:09.128911975,E4_Acc,2024-06-28 07:13:06.361989975,-49.0,-41.0,9.0
1904-01-01 00:37:09.160161975,E4_Acc,2024-06-28 07:13:06.393239975,-49.0,-41.0,9.0
1904-01-01 00:37:09.191411975,E4_Acc,2024-06-28 07:13:06.424489975,-49.0,-41.0,9.0
1904-01-01 00:37:09.222661975,E4_Acc,2024-06-28 07:13:06.455739975,-49.0,-41.0,8.0
1904-01-01 00:37:09.253911975,E4_Acc,2024-06-28 07:13:06.486989975,-49.0,-42.0,9.0
1904-01-01 00:37:09.285161974,E4_Acc,2024-06-28 07:13:06.518239974,-50.0,-41.0,9.0
1904-01-01 00:37:09.316411975,E4_Acc,2024-06-28 07:13:06.549489975,-49.0,-41.0,9.0
1904-01-01 00:37:09.347671989,E4_Acc,2024-06-28 07:13:06.580749989,-49.0,-41.0,9.0
1904-01-01 00:37:09.378921989,E4_Acc,2024-06-28 07:13:06.611999989,-49.0,-41.0,8.0
1904-01-01 00:37:09.410171989,E4_Acc,2024-06-28 07:13:06.643249989,-49.0,-41.0,8.0
1904-01-01 00:37:09.441421989,E4_Acc,2024-06-28 07:13:06.674499989,-49.0,-41.0,9.0
1904-01-01 00:37:09.472671989,E4_Acc,2024-06-28 07:13:06.705749989,-49.0,-41.0,9.0
1904-01-01 00:37:09.503921989,E4_Acc,2024-06-28 07:13:06.736999989,-49.0,-41.0,9.0
1904-01-01 00:37:09.535171989,E4_Acc,2024-06-28 07:13:06.768249989,-49.0,-41.0,9.0
1904-01-01 00:37:09.566432002,E4_Acc,2024-06-28 07:13:06.799510002,-49.0,-41.0,9.0
1904-01-01 00:37:09.597682002,E4_Acc,2024-06-28 07:13:06.830760002,-49.0,-41.0,9.0
1904-01-01 00:37:09.628932002,E4_Acc,2024-06-28 07:13:06.862010002,-49.0,-41.0,9.0
1904-01-01 00:37:09.660182002,E4_Acc,2024-06-28 07:13:06.893260002,-49.0,-41.0,8.0
1904-01-01 00:37:09.691432002,E4_Acc,2024-06-28 07:13:06.924510002,-49.0,-41.0,9.0
1904-01-01 00:37:09.722682002,E4_Acc,2024-06-28 07:13:06.955760002,-49.0,-41.0,9.0
1904-01-01 00:37:09.753932002,E4_Acc,2024-06-28 07:13:06.987010002,-49.0,-41.0,9.0
1904-01-01 00:37:09.785192016,E4_Acc,2024-06-28 07:13:07.018270016,-49.0,-41.0,8.0
1904-01-01 00:37:09.816442016,E4_Acc,2024-06-28 07:13:07.049520016,-49.0,-41.0,8.0
1904-01-01 00:37:09.847692016,E4_Acc,2024-06-28 07:13:07.080770016,-50.0,-41.0,8.0
1904-01-01 00:37:09.878942016,E4_Acc,2024-06-28 07:13:07.112020016,-49.0,-41.0,8.0
1904-01-01 00:37:09.910192016,E4_Acc,2024-06-28 07:13:07.143270016,-49.0,-41.0,8.0
1904-01-01 00:37:09.941442016,E4_Acc,2024-06-28 07:13:07.174520016,-49.0,-41.0,8.0
1904-01-01 00:37:09.972692016,E4_Acc,2024-06-28 07:13:07.205770016,-49.0,-41.0,8.0
1904-01-01 00:37:10.003952029,E4_Acc,2024-06-28 07:13:07.237030029,-49.0,-41.0,8.0
1904-01-01 00:37:10.035202028,E4_Acc,2024-06-28 07:13:07.268280028,-49.0,-41.0,8.0
1904-01-01 00:37:10.066452029,E4_Acc,2024-06-28 07:13:07.299530029,-50.0,-41.0,8.0
1904-01-01 00:37:10.097702029,E4_Acc,2024-06-28 07:13:07.330780029,-50.0,-41.0,8.0
1904-01-01 00:37:10.128952029,E4_Acc,2024-06-28 07:13:07.362030029,-49.0,-41.0,9.0
1904-01-01 00:37:10.160202029,E4_Acc,2024-06-28 07:13:07.393280029,-49.0,-41.0,9.0
1904-01-01 00:37:10.191452029,E4_Acc,2024-06-28 07:13:07.424530029,-49.0,-41.0,8.0
1904-01-01 00:37:10.222712043,E4_Acc,2024-06-28 07:13:07.455790043,-49.0,-41.0,8.0
1904-01-01 00:37:10.253962043,E4_Acc,2024-06-28 07:13:07.487040043,-50.0,-41.0,8.0
1904-01-01 00:37:10.285212043,E4_Acc,2024-06-28 07:13:07.518290043,-49.0,-41.0,8.0
1904-01-01 00:37:10.316462043,E4_Acc,2024-06-28 07:13:07.549540043,-49.0,-41.0,8.0
1904-01-01 00:37:10.347712043,E4_Acc,2024-06-28 07:13:07.580790043,-49.0,-41.0,8.0
1904-01-01 00:37:10.378962043,E4_Acc,2024-06-28 07:13:07.612040043,-49.0,-41.0,8.0
1904-01-01 00:37:10.410212043,E4_Acc,2024-06-28 07:13:07.643290043,-49.0,-41.0,8.0
1904-01-01 00:37:10.441472056,E4_Acc,2024-06-28 07:13:07.674550056,-49.0,-41.0,8.0
1904-01-01 00:37:10.472722056,E4_Acc,2024-06-28 07:13:07.705800056,-49.0,-41.0,8.0
1904-01-01 00:37:10.503972056,E4_Acc,2024-06-28 07:13:07.737050056,-50.0,-41.0,8.0
1904-01-01 00:37:10.535222056,E4_Acc,2024-06-28 07:13:07.768300056,-49.0,-41.0,8.0
1904-01-01 00:37:10.566472056,E4_Acc,2024-06-28 07:13:07.799550056,-49.0,-41.0,8.0
1904-01-01 00:37:10.597722056,E4_Acc,2024-06-28 07:13:07.830800056,-49.0,-41.0,8.0
1904-01-01 00:37:10.628972056,E4_Acc,2024-06-28 07:13:07.862050056,-49.0,-41.0,8.0
1904-01-01 00:37:10.660232070,E4_Acc,2024-06-28 07:13:07.893310070,-49.0,-41.0,8.0
1904-01-01 00:37:10.691482070,E4_Acc,2024-06-28 07:13:07.924560070,-49.0,-41.0,8.0
1904-01-01 00:37:10.722732070,E4_Acc,2024-06-28 07:13:07.955810070,-49.0,-41.0,8.0
1904-01-01 00:37:10.753982070,E4_Acc,2024-06-28 07:13:07.987060070,-49.0,-41.0,8.0
1904-01-01 00:37:10.785232070,E4_Acc,2024-06-28 07:13:08.018310070,-49.0,-41.0,8.0
1904-01-01 00:37:10.816482070,E4_Acc,2024-06-28 07:13:08.049560070,-49.0,-41.0,8.0
1904-01-01 00:37:10.847732070,E4_Acc,2024-06-28 07:13:08.080810070,-49.0,-41.0,8.0
1904-01-01 00:37:10.878992084,E4_Acc,2024-06-28 07:13:08.112070084,-49.0,-41.0,8.0
1904-01-01 00:37:10.910242084,E4_Acc,2024-06-28 07:13:08.143320084,-50.0,-41.0,8.0
1904-01-01 00:37:10.941492084,E4_Acc,2024-06-28 07:13:08.174570084,-50.0,-41.0,8.0
1904-01-01 00:37:10.972742084,E4_Acc,2024-06-28 07:13:08.205820084,-49.0,-41.0,8.0
1904-01-01 00:37:11.003992084,E4_Acc,2024-06-28 07:13:08.237070084,-49.0,-41.0,8.0
1904-01-01 00:37:11.035242084,E4_Acc,2024-06-28 07:13:08.268320084,-49.0,-42.0,8.0
1904-01-01 00:37:11.066492084,E4_Acc,2024-06-28 07:13:08.299570084,-49.0,-41.0,8.0
1904-01-01 00:37:11.097752097,E4_Acc,2024-06-28 07:13:08.330830097,-49.0,-41.0,8.0
1904-01-01 00:37:11.129002097,E4_Acc,2024-06-28 07:13:08.362080097,-49.0,-41.0,8.0
1904-01-01 00:37:11.160252097,E4_Acc,2024-06-28 07:13:08.393330097,-49.0,-41.0,8.0
1904-01-01 00:37:11.191502097,E4_Acc,2024-06-28 07:13:08.424580097,-49.0,-41.0,7.0
1904-01-01 00:37:11.222752097,E4_Acc,2024-06-28 07:13:08.455830097,-50.0,-41.0,8.0
1904-01-01 00:37:11.254002097,E4_Acc,2024-06-28 07:13:08.487080097,-50.0,-41.0,8.0
1904-01-01 00:37:11.285262111,E4_Acc,2024-06-28 07:13:08.518340111,-49.0,-41.0,8.0
1904-01-01 00:37:11.316512111,E4_Acc,2024-06-28 07:13:08.549590111,-49.0,-41.0,8.0
1904-01-01 00:37:11.347762111,E4_Acc,2024-06-28 07:13:08.580840111,-49.0,-41.0,8.0
1904-01-01 00:37:11.379012111,E4_Acc,2024-06-28 07:13:08.612090111,-49.0,-41.0,8.0
1904-01-01 00:37:11.410262111,E4_Acc,2024-06-28 07:13:08.643340111,-49.0,-41.0,8.0
1904-01-01 00:37:11.441512111,E4_Acc,2024-06-28 07:13:08.674590111,-50.0,-41.0,8.0
1904-01-01 00:37:11.472762111,E4_Acc,2024-06-28 07:13:08.705840111,-49.0,-41.0,8.0
1904-01-01 00:37:11.504021886,E4_Acc,2024-06-28 07:13:08.737099886,-49.0,-41.0,8.0
1904-01-01 00:37:11.535271886,E4_Acc,2024-06-28 07:13:08.768349886,-50.0,-41.0,8.0
1904-01-01 00:37:11.566521886,E4_Acc,2024-06-28 07:13:08.799599886,-50.0,-41.0,8.0
1904-01-01 00:37:11.597771886,E4_Acc,2024-06-28 07:13:08.830849886,-50.0,-41.0,8.0
1904-01-01 00:37:11.629021886,E4_Acc,2024-06-28 07:13:08.862099886,-50.0,-41.0,8.0
1904-01-01 00:37:11.660271886,E4_Acc,2024-06-28 07:13:08.893349886,-49.0,-41.0,8.0
1904-01-01 00:37:11.691521886,E4_Acc,2024-06-28 07:13:08.924599886,-49.0,-41.0,8.0
1904-01-01 00:37:11.722781900,E4_Acc,2024-06-28 07:13:08.955859900,-49.0,-41.0,8.0
1904-01-01 00:37:11.754031900,E4_Acc,2024-06-28 07:13:08.987109900,-50.0,-42.0,8.0
1904-01-01 00:37:11.785281900,E4_Acc,2024-06-28 07:13:09.018359900,-50.0,-41.0,9.0
1904-01-01 00:37:11.816531900,E4_Acc,2024-06-28 07:13:09.049609900,-49.0,-41.0,8.0
1904-01-01 00:37:11.847781900,E4_Acc,2024-06-28 07:13:09.080859900,-49.0,-41.0,8.0
1904-01-01 00:37:11.879031900,E4_Acc,2024-06-28 07:13:09.112109900,-49.0,-41.0,8.0
1904-01-01 00:37:11.910281900,E4_Acc,2024-06-28 07:13:09.143359900,-49.0,-41.0,8.0
1904-01-01 00:37:11.941541913,E4_Acc,2024-06-28 07:13:09.174619913,-49.0,-41.0,8.0
1904-01-01 00:37:11.972791913,E4_Acc,2024-06-28 07:13:09.205869913,-49.0,-41.0,8.0
1904-01-01 00:37:12.004041913,E4_Acc,2024-06-28 07:13:09.237119913,-50.0,-41.0,8.0
1904-01-01 00:37:12.035291913,E4_Acc,2024-06-28 07:13:09.268369913,-50.0,-41.0,8.0
1904-01-01 00:37:12.066541913,E4_Acc,2024-06-28 07:13:09.299619913,-50.0,-41.0,8.0
1904-01-01 00:37:12.097791913,E4_Acc,2024-06-28 07:13:09.330869913,-49.0,-41.0,8.0
1904-01-01 00:37:12.129041913,E4_Acc,2024-06-28 07:13:09.362119913,-49.0,-41.0,8.0
1904-01-01 00:37:12.160301927,E4_Acc,2024-06-28 07:13:09.393379927,-50.0,-41.0,8.0
1904-01-01 00:37:12.191551927,E4_Acc,2024-06-28 07:13:09.424629927,-50.0,-41.0,8.0
1904-01-01 00:37:12.222801927,E4_Acc,2024-06-28 07:13:09.455879927,-49.0,-41.0,8.0
1904-01-01 00:37:12.254051927,E4_Acc,2024-06-28 07:13:09.487129927,-49.0,-41.0,8.0
1904-01-01 00:37:12.285301927,E4_Acc,2024-06-28 07:13:09.518379927,-49.0,-41.0,8.0
1904-01-01 00:37:12.316551927,E4_Acc,2024-06-28 07:13:09.549629927,-50.0,-41.0,8.0
1904-01-01 00:37:12.347801927,E4_Acc,2024-06-28 07:13:09.580879927,-50.0,-41.0,8.0
1904-01-01 00:37:12.379061940,E4_Acc,2024-06-28 07:13:09.612139940,-49.0,-41.0,8.0
1904-01-01 00:37:12.410311940,E4_Acc,2024-06-28 07:13:09.643389940,-49.0,-41.0,8.0
1904-01-01 00:37:12.441561940,E4_Acc,2024-06-28 07:13:09.674639940,-49.0,-41.0,8.0
1904-01-01 00:37:12.472811940,E4_Acc,2024-06-28 07:13:09.705889940,-49.0,-41.0,8.0
1904-01-01 00:37:12.504061940,E4_Acc,2024-06-28 07:13:09.737139940,-49.0,-41.0,8.0
1904-01-01 00:37:12.535311940,E4_Acc,2024-06-28 07:13:09.768389940,-49.0,-41.0,8.0
1904-01-01 00:37:12.566561940,E4_Acc,2024-06-28 07:13:09.799639940,-49.0,-41.0,8.0
1904-01-01 00:37:12.597821954,E4_Acc,2024-06-28 07:13:09.830899954,-49.0,-42.0,8.0
1904-01-01 00:37:12.629071954,E4_Acc,2024-06-28 07:13:09.862149954,-49.0,-41.0,8.0
1904-01-01 00:37:12.660321954,E4_Acc,2024-06-28 07:13:09.893399954,-49.0,-41.0,8.0
1904-01-01 00:37:12.691571954,E4_Acc,2024-06-28 07:13:09.924649954,-49.0,-41.0,8.0
1904-01-01 00:37:12.722821954,E4_Acc,2024-06-28 07:13:09.955899954,-50.0,-42.0,8.0
1904-01-01 00:37:12.754071954,E4_Acc,2024-06-28 07:13:09.987149954,-50.0,-41.0,8.0
1904-01-01 00:37:12.785321954,E4_Acc,2024-06-28 07:13:10.018399954,-49.0,-41.0,8.0
1904-01-01 00:37:12.816581967,E4_Acc,2024-06-28 07:13:10.049659967,-49.0,-41.0,8.0
1904-01-01 00:37:12.847831967,E4_Acc,2024-06-28 07:13:10.080909967,-49.0,-41.0,8.0
1904-01-01 00:37:12.879081967,E4_Acc,2024-06-28 07:13:10.112159967,-50.0,-41.0,8.0
1904-01-01 00:37:12.910331967,E4_Acc,2024-06-28 07:13:10.143409967,-49.0,-41.0,8.0
1904-01-01 00:37:12.941581967,E4_Acc,2024-06-28 07:13:10.174659967,-50.0,-41.0,8.0
1904-01-01 00:37:12.972831967,E4_Acc,2024-06-28 07:13:10.205909967,-50.0,-41.0,8.0
1904-01-01 00:37:13.004081967,E4_Acc,2024-06-28 07:13:10.237159967,-50.0,-41.0,8.0
1904-01-01 00:37:13.035341980,E4_Acc,2024-06-28 07:13:10.268419980,-50.0,-41.0,8.0
1904-01-01 00:37:13.066591981,E4_Acc,2024-06-28 07:13:10.299669981,-49.0,-41.0,8.0
1904-01-01 00:37:13.097841981,E4_Acc,2024-06-28 07:13:10.330919981,-50.0,-41.0,8.0
1904-01-01 00:37:13.129091981,E4_Acc,2024-06-28 07:13:10.362169981,-50.0,-41.0,8.0
1904-01-01 00:37:13.160341981,E4_Acc,2024-06-28 07:13:10.393419981,-49.0,-41.0,8.0
1904-01-01 00:37:13.191591981,E4_Acc,2024-06-28 07:13:10.424669981,-49.0,-41.0,8.0
1904-01-01 00:37:13.222841981,E4_Acc,2024-06-28 07:13:10.455919981,-50.0,-41.0,8.0
1904-01-01 00:37:13.254101995,E4_Acc,2024-06-28 07:13:10.487179995,-49.0,-41.0,8.0
1904-01-01 00:37:13.285351995,E4_Acc,2024-06-28 07:13:10.518429995,-49.0,-41.0,8.0
1904-01-01 00:37:13.316601995,E4_Acc,2024-06-28 07:13:10.549679995,-49.0,-41.0,8.0
1904-01-01 00:37:13.347851995,E4_Acc,2024-06-28 07:13:10.580929995,-49.0,-41.0,8.0
1904-01-01 00:37:13.379101995,E4_Acc,2024-06-28 07:13:10.612179995,-49.0,-41.0,8.0
1904-01-01 00:37:13.410351995,E4_Acc,2024-06-28 07:13:10.643429995,-49.0,-41.0,8.0
1904-01-01 00:37:13.441601995,E4_Acc,2024-06-28 07:13:10.674679995,-49.0,-41.0,8.0
1904-01-01 00:37:13.472862008,E4_Acc,2024-06-28 07:13:10.705940008,-49.0,-41.0,8.0
1904-01-01 00:37:13.504112008,E4_Acc,2024-06-28 07:13:10.737190008,-49.0,-41.0,8.0
1904-01-01 00:37:13.535362008,E4_Acc,2024-06-28 07:13:10.768440008,-49.0,-41.0,8.0
1904-01-01 00:37:13.566612008,E4_Acc,2024-06-28 07:13:10.799690008,-50.0,-41.0,8.0
1904-01-01 00:37:13.597862008,E4_Acc,2024-06-28 07:13:10.830940008,-50.0,-41.0,9.0
1904-01-01 00:37:13.629112008,E4_Acc,2024-06-28 07:13:10.862190008,-50.0,-41.0,8.0
1904-01-01 00:37:13.660372022,E4_Acc,2024-06-28 07:13:10.893450022,-49.0,-41.0,8.0
1904-01-01 00:37:13.691622022,E4_Acc,2024-06-28 07:13:10.924700022,-49.0,-41.0,8.0
1904-01-01 00:37:13.722872022,E4_Acc,2024-06-28 07:13:10.955950022,-49.0,-41.0,8.0
1904-01-01 00:37:13.754122022,E4_Acc,2024-06-28 07:13:10.987200022,-49.0,-41.0,8.0
1904-01-01 00:37:13.785372022,E4_Acc,2024-06-28 07:13:11.018450022,-50.0,-41.0,8.0
1904-01-01 00:37:13.816622022,E4_Acc,2024-06-28 07:13:11.049700022,-50.0,-41.0,8.0
1904-01-01 00:37:13.847872022,E4_Acc,2024-06-28 07:13:11.080950022,-50.0,-41.0,8.0
1904-01-01 00:37:13.879132035,E4_Acc,2024-06-28 07:13:11.112210035,-50.0,-41.0,8.0
1904-01-01 00:37:13.910382035,E4_Acc,2024-06-28 07:13:11.143460035,-50.0,-41.0,8.0
1904-01-01 00:37:13.941632035,E4_Acc,2024-06-28 07:13:11.174710035,-49.0,-41.0,8.0
1904-01-01 00:37:13.972882035,E4_Acc,2024-06-28 07:13:11.205960035,-49.0,-41.0,8.0
1904-01-01 00:37:14.004132035,E4_Acc,2024-06-28 07:13:11.237210035,-49.0,-41.0,8.0
1904-01-01 00:37:14.035382035,E4_Acc,2024-06-28 07:13:11.268460035,-49.0,-41.0,7.0
1904-01-01 00:37:14.066632035,E4_Acc,2024-06-28 07:13:11.299710035,-50.0,-41.0,8.0
1904-01-01 00:37:14.097892049,E4_Acc,2024-06-28 07:13:11.330970049,-50.0,-41.0,8.0
1904-01-01 00:37:14.129142049,E4_Acc,2024-06-28 07:13:11.362220049,-49.0,-41.0,8.0
1904-01-01 00:37:14.160392049,E4_Acc,2024-06-28 07:13:11.393470049,-49.0,-41.0,8.0
1904-01-01 00:37:14.191642049,E4_Acc,2024-06-28 07:13:11.424720049,-49.0,-41.0,8.0
1904-01-01 00:37:14.222892049,E4_Acc,2024-06-28 07:13:11.455970049,-49.0,-41.0,8.0
1904-01-01 00:37:14.254142049,E4_Acc,2024-06-28 07:13:11.487220049,-49.0,-41.0,8.0
1904-01-01 00:37:14.285392049,E4_Acc,2024-06-28 07:13:11.518470049,-49.0,-41.0,7.0
1904-01-01 00:37:14.316652062,E4_Acc,2024-06-28 07:13:11.549730062,-49.0,-41.0,7.0
1904-01-01 00:37:14.347902062,E4_Acc,2024-06-28 07:13:11.580980062,-50.0,-41.0,8.0
1904-01-01 00:37:14.379152062,E4_Acc,2024-06-28 07:13:11.612230062,-50.0,-41.0,8.0
1904-01-01 00:37:14.410402062,E4_Acc,2024-06-28 07:13:11.643480062,-50.0,-41.0,8.0
1904-01-01 00:37:14.441652062,E4_Acc,2024-06-28 07:13:11.674730062,-50.0,-41.0,8.0
1904-01-01 00:37:14.472902062,E4_Acc,2024-06-28 07:13:11.705980062,-50.0,-41.0,8.0
1904-01-01 00:37:14.504152062,E4_Acc,2024-06-28 07:13:11.737230062,-50.0,-41.0,8.0
1904-01-01 00:37:14.535412076,E4_Acc,2024-06-28 07:13:11.768490076,-49.0,-41.0,8.0
1904-01-01 00:37:14.566662076,E4_Acc,2024-06-28 07:13:11.799740076,-49.0,-41.0,8.0
1904-01-01 00:37:14.597912076,E4_Acc,2024-06-28 07:13:11.830990076,-50.0,-41.0,8.0
1904-01-01 00:37:14.629162076,E4_Acc,2024-06-28 07:13:11.862240076,-50.0,-41.0,8.0
1904-01-01 00:37:14.660412076,E4_Acc,2024-06-28 07:13:11.893490076,-50.0,-41.0,8.0
1904-01-01 00:37:14.691662076,E4_Acc,2024-06-28 07:13:11.924740076,-50.0,-41.0,8.0
1904-01-01 00:37:14.722912076,E4_Acc,2024-06-28 07:13:11.955990076,-50.0,-41.0,8.0
1904-01-01 00:37:14.754172090,E4_Acc,2024-06-28 07:13:11.987250090,-49.0,-41.0,8.0
1904-01-01 00:37:14.785422090,E4_Acc,2024-06-28 07:13:12.018500090,-49.0,-41.0,7.0
1904-01-01 00:37:14.816672090,E4_Acc,2024-06-28 07:13:12.049750090,-49.0,-41.0,7.0
1904-01-01 00:37:14.847922090,E4_Acc,2024-06-28 07:13:12.081000090,-50.0,-41.0,8.0
1904-01-01 00:37:14.879172090,E4_Acc,2024-06-28 07:13:12.112250090,-50.0,-41.0,8.0
1904-01-01 00:37:14.910422090,E4_Acc,2024-06-28 07:13:12.143500090,-49.0,-41.0,7.0
1904-01-01 00:37:14.941672090,E4_Acc,2024-06-28 07:13:12.174750090,-49.0,-41.0,7.0
1904-01-01 00:37:14.972932103,E4_Acc,2024-06-28 07:13:12.206010103,-50.0,-41.0,8.0
1904-01-01 00:37:15.004182103,E4_Acc,2024-06-28 07:13:12.237260103,-49.0,-41.0,8.0
1904-01-01 00:37:15.035432103,E4_Acc,2024-06-28 07:13:12.268510103,-49.0,-41.0,7.0
1904-01-01 00:37:15.066682103,E4_Acc,2024-06-28 07:13:12.299760103,-50.0,-41.0,7.0
1904-01-01 00:37:15.097932103,E4_Acc,2024-06-28 07:13:12.331010103,-50.0,-41.0,8.0
1904-01-01 00:37:15.129182103,E4_Acc,2024-06-28 07:13:12.362260103,-50.0,-41.0,8.0
1904-01-01 00:37:15.160432103,E4_Acc,2024-06-28 07:13:12.393510103,-50.0,-41.0,8.0
1904-01-01 00:37:15.191692117,E4_Acc,2024-06-28 07:13:12.424770117,-49.0,-41.0,8.0
1904-01-01 00:37:15.222942117,E4_Acc,2024-06-28 07:13:12.456020117,-50.0,-41.0,8.0
1904-01-01 00:37:15.254192117,E4_Acc,2024-06-28 07:13:12.487270117,-50.0,-41.0,8.0
1904-01-01 00:37:15.285442117,E4_Acc,2024-06-28 07:13:12.518520117,-50.0,-41.0,8.0
1904-01-01 00:37:15.316692117,E4_Acc,2024-06-28 07:13:12.549770117,-50.0,-41.0,8.0
1904-01-01 00:37:15.347942117,E4_Acc,2024-06-28 07:13:12.581020117,-49.0,-41.0,8.0
1904-01-01 00:37:15.379192117,E4_Acc,2024-06-28 07:13:12.612270117,-50.0,-41.0,8.0
1904-01-01 00:37:15.410451892,E4_Acc,2024-06-28 07:13:12.643529892,-50.0,-41.0,8.0
1904-01-01 00:37:15.441701892,E4_Acc,2024-06-28 07:13:12.674779892,-50.0,-41.0,7.0
1904-01-01 00:37:15.472951892,E4_Acc,2024-06-28 07:13:12.706029892,-50.0,-41.0,8.0
1904-01-01 00:37:15.504201892,E4_Acc,2024-06-28 07:13:12.737279892,-50.0,-41.0,7.0
1904-01-01 00:37:15.535451892,E4_Acc,2024-06-28 07:13:12.768529892,-49.0,-41.0,7.0
1904-01-01 00:37:15.566701892,E4_Acc,2024-06-28 07:13:12.799779892,-50.0,-41.0,7.0
1904-01-01 00:37:15.597951892,E4_Acc,2024-06-28 07:13:12.831029892,-50.0,-41.0,8.0
1904-01-01 00:37:15.629211906,E4_Acc,2024-06-28 07:13:12.862289906,-49.0,-41.0,7.0
1904-01-01 00:37:15.660461906,E4_Acc,2024-06-28 07:13:12.893539906,-49.0,-41.0,7.0
1904-01-01 00:37:15.691711906,E4_Acc,2024-06-28 07:13:12.924789906,-49.0,-41.0,7.0
1904-01-01 00:37:15.722961906,E4_Acc,2024-06-28 07:13:12.956039906,-50.0,-41.0,7.0
1904-01-01 00:37:15.754211906,E4_Acc,2024-06-28 07:13:12.987289906,-50.0,-41.0,8.0
1904-01-01 00:37:15.785461906,E4_Acc,2024-06-28 07:13:13.018539906,-50.0,-41.0,7.0
1904-01-01 00:37:15.816711906,E4_Acc,2024-06-28 07:13:13.049789906,-49.0,-41.0,8.0
1904-01-01 00:37:15.847971919,E4_Acc,2024-06-28 07:13:13.081049919,-49.0,-41.0,7.0
1904-01-01 00:37:15.879221919,E4_Acc,2024-06-28 07:13:13.112299919,-50.0,-41.0,7.0
1904-01-01 00:37:15.910471919,E4_Acc,2024-06-28 07:13:13.143549919,-50.0,-41.0,8.0
1904-01-01 00:37:15.941721919,E4_Acc,2024-06-28 07:13:13.174799919,-49.0,-41.0,8.0
1904-01-01 00:37:15.972971919,E4_Acc,2024-06-28 07:13:13.206049919,-49.0,-41.0,8.0
1904-01-01 00:37:16.004221919,E4_Acc,2024-06-28 07:13:13.237299919,-49.0,-41.0,7.0
1904-01-01 00:37:16.035471919,E4_Acc,2024-06-28 07:13:13.268549919,-50.0,-41.0,8.0
1904-01-01 00:37:16.066731933,E4_Acc,2024-06-28 07:13:13.299809933,-50.0,-41.0,7.0
1904-01-01 00:37:16.097981933,E4_Acc,2024-06-28 07:13:13.331059933,-50.0,-41.0,7.0
1904-01-01 00:37:16.129231933,E4_Acc,2024-06-28 07:13:13.362309933,-50.0,-41.0,7.0
1904-01-01 00:37:16.160481933,E4_Acc,2024-06-28 07:13:13.393559933,-50.0,-41.0,7.0
1904-01-01 00:37:16.191731933,E4_Acc,2024-06-28 07:13:13.424809933,-50.0,-41.0,8.0
1904-01-01 00:37:16.222981933,E4_Acc,2024-06-28 07:13:13.456059933,-50.0,-41.0,8.0
1904-01-01 00:37:16.254231933,E4_Acc,2024-06-28 07:13:13.487309933,-50.0,-41.0,7.0
1904-01-01 00:37:16.285491945,E4_Acc,2024-06-28 07:13:13.518569945,-50.0,-41.0,7.0
1904-01-01 00:37:16.316741946,E4_Acc,2024-06-28 07:13:13.549819946,-50.0,-41.0,7.0
1904-01-01 00:37:16.347991946,E4_Acc,2024-06-28 07:13:13.581069946,-49.0,-41.0,7.0
1904-01-01 00:37:16.379241946,E4_Acc,2024-06-28 07:13:13.612319946,-49.0,-41.0,7.0
1904-01-01 00:37:16.410491946,E4_Acc,2024-06-28 07:13:13.643569946,-50.0,-41.0,7.0
1904-01-01 00:37:16.441741946,E4_Acc,2024-06-28 07:13:13.674819946,-49.0,-41.0,7.0
1904-01-01 00:37:16.473001960,E4_Acc,2024-06-28 07:13:13.706079960,-49.0,-41.0,7.0
1904-01-01 00:37:16.504251960,E4_Acc,2024-06-28 07:13:13.737329960,-50.0,-41.0,7.0
1904-01-01 00:37:16.535501960,E4_Acc,2024-06-28 07:13:13.768579960,-50.0,-41.0,7.0
1904-01-01 00:37:16.566751960,E4_Acc,2024-06-28 07:13:13.799829960,-50.0,-41.0,7.0
1904-01-01 00:37:16.598001960,E4_Acc,2024-06-28 07:13:13.831079960,-49.0,-41.0,7.0
1904-01-01 00:37:16.629251960,E4_Acc,2024-06-28 07:13:13.862329960,-49.0,-41.0,7.0
1904-01-01 00:37:16.660501960,E4_Acc,2024-06-28 07:13:13.893579960,-50.0,-41.0,7.0
1904-01-01 00:37:16.691761973,E4_Acc,2024-06-28 07:13:13.924839973,-50.0,-41.0,7.0
1904-01-01 00:37:16.723011973,E4_Acc,2024-06-28 07:13:13.956089973,-49.0,-41.0,7.0
1904-01-01 00:37:16.754261973,E4_Acc,2024-06-28 07:13:13.987339973,-49.0,-41.0,7.0
1904-01-01 00:37:16.785511973,E4_Acc,2024-06-28 07:13:14.018589973,-50.0,-41.0,7.0
1904-01-01 00:37:16.816761973,E4_Acc,2024-06-28 07:13:14.049839973,-50.0,-41.0,7.0
1904-01-01 00:37:16.848011973,E4_Acc,2024-06-28 07:13:14.081089973,-50.0,-41.0,7.0
1904-01-01 00:37:16.879261973,E4_Acc,2024-06-28 07:13:14.112339973,-49.0,-41.0,7.0
1904-01-01 00:37:16.910521987,E4_Acc,2024-06-28 07:13:14.143599987,-49.0,-41.0,8.0
1904-01-01 00:37:16.941771987,E4_Acc,2024-06-28 07:13:14.174849987,-49.0,-41.0,7.0
1904-01-01 00:37:16.973021987,E4_Acc,2024-06-28 07:13:14.206099987,-50.0,-41.0,7.0
1904-01-01 00:37:17.004271987,E4_Acc,2024-06-28 07:13:14.237349987,-50.0,-41.0,7.0
1904-01-01 00:37:17.035521987,E4_Acc,2024-06-28 07:13:14.268599987,-50.0,-41.0,7.0
1904-01-01 00:37:17.066771987,E4_Acc,2024-06-28 07:13:14.299849987,-49.0,-41.0,7.0
1904-01-01 00:37:17.098021987,E4_Acc,2024-06-28 07:13:14.331099987,-49.0,-41.0,7.0
1904-01-01 00:37:17.129282001,E4_Acc,2024-06-28 07:13:14.362360001,-49.0,-41.0,7.0
1904-01-01 00:37:17.160532001,E4_Acc,2024-06-28 07:13:14.393610001,-50.0,-41.0,7.0
1904-01-01 00:37:17.191782001,E4_Acc,2024-06-28 07:13:14.424860001,-49.0,-41.0,7.0
1904-01-01 00:37:17.223032001,E4_Acc,2024-06-28 07:13:14.456110001,-49.0,-41.0,7.0
1904-01-01 00:37:17.254282001,E4_Acc,2024-06-28 07:13:14.487360001,-49.0,-41.0,7.0
1904-01-01 00:37:17.285532001,E4_Acc,2024-06-28 07:13:14.518610001,-49.0,-41.0,8.0
1904-01-01 00:37:17.316782001,E4_Acc,2024-06-28 07:13:14.549860001,-49.0,-41.0,8.0
1904-01-01 00:37:17.348042014,E4_Acc,2024-06-28 07:13:14.581120014,-49.0,-41.0,7.0
1904-01-01 00:37:17.379292014,E4_Acc,2024-06-28 07:13:14.612370014,-49.0,-41.0,7.0
1904-01-01 00:37:17.410542014,E4_Acc,2024-06-28 07:13:14.643620014,-49.0,-41.0,7.0
1904-01-01 00:37:17.441792014,E4_Acc,2024-06-28 07:13:14.674870014,-50.0,-41.0,8.0
1904-01-01 00:37:17.473042014,E4_Acc,2024-06-28 07:13:14.706120014,-50.0,-41.0,8.0
1904-01-01 00:37:17.504292014,E4_Acc,2024-06-28 07:13:14.737370014,-49.0,-41.0,7.0
1904-01-01 00:37:17.535542014,E4_Acc,2024-06-28 07:13:14.768620014,-49.0,-41.0,7.0
1904-01-01 00:37:17.566802028,E4_Acc,2024-06-28 07:13:14.799880028,-50.0,-41.0,7.0
1904-01-01 00:37:17.598052028,E4_Acc,2024-06-28 07:13:14.831130028,-50.0,-41.0,7.0
1904-01-01 00:37:17.629302028,E4_Acc,2024-06-28 07:13:14.862380028,-49.0,-41.0,7.0
1904-01-01 00:37:17.660552028,E4_Acc,2024-06-28 07:13:14.893630028,-49.0,-41.0,7.0
1904-01-01 00:37:17.691802028,E4_Acc,2024-06-28 07:13:14.924880028,-50.0,-42.0,7.0
1904-01-01 00:37:17.723052028,E4_Acc,2024-06-28 07:13:14.956130028,-50.0,-41.0,7.0
1904-01-01 00:37:17.754302028,E4_Acc,2024-06-28 07:13:14.987380028,-50.0,-41.0,7.0
1904-01-01 00:37:17.785562041,E4_Acc,2024-06-28 07:13:15.018640041,-49.0,-41.0,7.0
1904-01-01 00:37:17.816812041,E4_Acc,2024-06-28 07:13:15.049890041,-49.0,-41.0,7.0
1904-01-01 00:37:17.848062041,E4_Acc,2024-06-28 07:13:15.081140041,-50.0,-41.0,7.0
1904-01-01 00:37:17.879312041,E4_Acc,2024-06-28 07:13:15.112390041,-50.0,-41.0,7.0
1904-01-01 00:37:17.910562041,E4_Acc,2024-06-28 07:13:15.143640041,-50.0,-41.0,7.0
1904-01-01 00:37:17.941812041,E4_Acc,2024-06-28 07:13:15.174890041,-49.0,-41.0,7.0
1904-01-01 00:37:17.973062041,E4_Acc,2024-06-28 07:13:15.206140041,-49.0,-41.0,7.0
1904-01-01 00:37:18.004322055,E4_Acc,2024-06-28 07:13:15.237400055,-49.0,-41.0,7.0
1904-01-01 00:37:18.035572055,E4_Acc,2024-06-28 07:13:15.268650055,-49.0,-41.0,7.0
1904-01-01 00:37:18.066822055,E4_Acc,2024-06-28 07:13:15.299900055,-50.0,-41.0,7.0
1904-01-01 00:37:18.098072055,E4_Acc,2024-06-28 07:13:15.331150055,-49.0,-41.0,7.0
1904-01-01 00:37:18.129322055,E4_Acc,2024-06-28 07:13:15.362400055,-49.0,-41.0,7.0
1904-01-01 00:37:18.160572055,E4_Acc,2024-06-28 07:13:15.393650055,-50.0,-41.0,7.0
1904-01-01 00:37:18.191822055,E4_Acc,2024-06-28 07:13:15.424900055,-50.0,-41.0,7.0
1904-01-01 00:37:18.223082069,E4_Acc,2024-06-28 07:13:15.456160069,-49.0,-41.0,7.0
1904-01-01 00:37:18.254332069,E4_Acc,2024-06-28 07:13:15.487410069,-49.0,-41.0,7.0
1904-01-01 00:37:18.285582068,E4_Acc,2024-06-28 07:13:15.518660068,-49.0,-41.0,7.0
1904-01-01 00:37:18.316832069,E4_Acc,2024-06-28 07:13:15.549910069,-50.0,-41.0,7.0
1904-01-01 00:37:18.348082069,E4_Acc,2024-06-28 07:13:15.581160069,-50.0,-41.0,7.0
